PE IR                   SPECTRUM    ASCII       PEDS        1.60        
  -1
FR220769.ASC
22/05/31
15:21:52.00
22/05/31
15:21:52.00
Administrator
Primer cinza claro (Parte interna)  removido com auxilio de um estilete na parte interna  da Amostra denominada A 2 - Porta de passageiros - sem nenhum tratamento - IR/UATR 80N - Vitor
550.000000
20









FRONTIER FT-IR/NIR,CPU32 MAIN 00.09.1072 09-JANUARY-2014 12:55:01
MIR TGS
MIR
OPTKBR
100262
0.200000

4.000000
FORTE
RAZ„O
ESPECTRO
MAGNITUDE
UNIVERSAL ATR
DUPLO

COMBINADO


0


#HDR
-1
-1
#GR
CM-1
%T
0.00002384185791015625
0.0
4000.000000
-1.000000
3451
8
97.026950
47.409726
#DATA
4000.000000	92.996371 
3999.000000	92.998579 
3998.000000	93.001823 
3997.000000	93.005736 
3996.000000	93.009213 
3995.000000	93.012752 
3994.000000	93.017245 
3993.000000	93.022781 
3992.000000	93.028336 
3991.000000	93.032157 
3990.000000	93.032996 
3989.000000	93.031528 
3988.000000	93.029542 
3987.000000	93.029060 
3986.000000	93.030691 
3985.000000	93.033195 
3984.000000	93.035180 
3983.000000	93.036324 
3982.000000	93.038123 
3981.000000	93.042261 
3980.000000	93.049056 
3979.000000	93.057343 
3978.000000	93.065187 
3977.000000	93.070813 
3976.000000	93.073058 
3975.000000	93.071910 
3974.000000	93.068778 
3973.000000	93.065806 
3972.000000	93.064551 
3971.000000	93.065455 
3970.000000	93.068064 
3969.000000	93.071661 
3968.000000	93.075656 
3967.000000	93.080085 
3966.000000	93.085709 
3965.000000	93.093439 
3964.000000	93.102541 
3963.000000	93.110721 
3962.000000	93.114960 
3961.000000	93.113624 
3960.000000	93.109103 
3959.000000	93.105354 
3958.000000	93.105095 
3957.000000	93.107705 
3956.000000	93.109390 
3955.000000	93.107759 
3954.000000	93.103709 
3953.000000	93.101211 
3952.000000	93.105370 
3951.000000	93.118442 
3950.000000	93.138021 
3949.000000	93.156446 
3948.000000	93.165720 
3947.000000	93.163414 
3946.000000	93.151479 
3945.000000	93.135858 
3944.000000	93.124802 
3943.000000	93.124167 
3942.000000	93.131959 
3941.000000	93.140126 
3940.000000	93.144602 
3939.000000	93.147467 
3938.000000	93.153624 
3937.000000	93.165907 
3936.000000	93.180158 
3935.000000	93.192195 
3934.000000	93.202106 
3933.000000	93.210397 
3932.000000	93.213216 
3931.000000	93.204733 
3930.000000	93.187822 
3929.000000	93.170124 
3928.000000	93.155911 
3927.000000	93.147096 
3926.000000	93.148577 
3925.000000	93.162822 
3924.000000	93.180715 
3923.000000	93.190125 
3922.000000	93.188921 
3921.000000	93.188281 
3920.000000	93.198941 
3919.000000	93.217898 
3918.000000	93.233530 
3917.000000	93.236863 
3916.000000	93.229991 
3915.000000	93.220668 
3914.000000	93.212210 
3913.000000	93.208686 
3912.000000	93.212502 
3911.000000	93.221268 
3910.000000	93.229120 
3909.000000	93.232651 
3908.000000	93.232379 
3907.000000	93.234201 
3906.000000	93.245794 
3905.000000	93.273895 
3904.000000	93.310394 
3903.000000	93.330945 
3902.000000	93.318959 
3901.000000	93.282839 
3900.000000	93.248600 
3899.000000	93.236732 
3898.000000	93.246321 
3897.000000	93.262309 
3896.000000	93.275590 
3895.000000	93.287151 
3894.000000	93.296291 
3893.000000	93.302703 
3892.000000	93.305329 
3891.000000	93.309818 
3890.000000	93.322255 
3889.000000	93.329470 
3888.000000	93.319711 
3887.000000	93.305518 
3886.000000	93.310141 
3885.000000	93.331141 
3884.000000	93.336721 
3883.000000	93.307774 
3882.000000	93.261081 
3881.000000	93.234714 
3880.000000	93.247160 
3879.000000	93.279720 
3878.000000	93.302861 
3877.000000	93.298234 
3876.000000	93.277669 
3875.000000	93.274847 
3874.000000	93.302351 
3873.000000	93.337346 
3872.000000	93.351266 
3871.000000	93.348433 
3870.000000	93.358281 
3869.000000	93.385108 
3868.000000	93.403936 
3867.000000	93.396895 
3866.000000	93.379466 
3865.000000	93.382358 
3864.000000	93.399572 
3863.000000	93.403678 
3862.000000	93.392927 
3861.000000	93.386227 
3860.000000	93.392206 
3859.000000	93.408692 
3858.000000	93.427930 
3857.000000	93.440250 
3856.000000	93.436551 
3855.000000	93.420245 
3854.000000	93.422839 
3853.000000	93.444341 
3852.000000	93.445102 
3851.000000	93.427083 
3850.000000	93.408988 
3849.000000	93.404421 
3848.000000	93.412569 
3847.000000	93.420730 
3846.000000	93.421046 
3845.000000	93.414982 
3844.000000	93.409802 
3843.000000	93.410200 
3842.000000	93.413018 
3841.000000	93.412695 
3840.000000	93.406907 
3839.000000	93.401120 
3838.000000	93.398556 
3837.000000	93.400204 
3836.000000	93.405991 
3835.000000	93.410739 
3834.000000	93.411759 
3833.000000	93.413931 
3832.000000	93.423428 
3831.000000	93.440096 
3830.000000	93.453658 
3829.000000	93.454176 
3828.000000	93.445285 
3827.000000	93.445173 
3826.000000	93.465927 
3825.000000	93.494634 
3824.000000	93.504405 
3823.000000	93.485970 
3822.000000	93.469392 
3821.000000	93.482877 
3820.000000	93.504880 
3819.000000	93.503234 
3818.000000	93.469710 
3817.000000	93.435461 
3816.000000	93.437178 
3815.000000	93.466004 
3814.000000	93.485886 
3813.000000	93.484617 
3812.000000	93.481929 
3811.000000	93.496824 
3810.000000	93.520491 
3809.000000	93.532521 
3808.000000	93.530681 
3807.000000	93.533939 
3806.000000	93.546483 
3805.000000	93.544480 
3804.000000	93.512184 
3803.000000	93.469764 
3802.000000	93.458509 
3801.000000	93.482444 
3800.000000	93.504856 
3799.000000	93.503097 
3798.000000	93.486818 
3797.000000	93.481291 
3796.000000	93.497650 
3795.000000	93.517660 
3794.000000	93.524210 
3793.000000	93.518564 
3792.000000	93.514496 
3791.000000	93.518599 
3790.000000	93.526052 
3789.000000	93.532159 
3788.000000	93.536453 
3787.000000	93.539823 
3786.000000	93.543048 
3785.000000	93.546279 
3784.000000	93.547975 
3783.000000	93.544629 
3782.000000	93.532003 
3781.000000	93.516695 
3780.000000	93.514540 
3779.000000	93.529770 
3778.000000	93.549299 
3777.000000	93.559111 
3776.000000	93.559769 
3775.000000	93.563363 
3774.000000	93.576126 
3773.000000	93.591041 
3772.000000	93.598119 
3771.000000	93.602237 
3770.000000	93.611520 
3769.000000	93.620724 
3768.000000	93.616291 
3767.000000	93.601278 
3766.000000	93.593375 
3765.000000	93.604001 
3764.000000	93.622917 
3763.000000	93.628253 
3762.000000	93.614958 
3761.000000	93.601773 
3760.000000	93.605005 
3759.000000	93.617570 
3758.000000	93.625414 
3757.000000	93.634624 
3756.000000	93.649597 
3755.000000	93.664644 
3754.000000	93.679702 
3753.000000	93.712493 
3752.000000	93.772499 
3751.000000	93.830313 
3750.000000	93.850228 
3749.000000	93.844671 
3748.000000	93.828953 
3747.000000	93.788106 
3746.000000	93.720298 
3745.000000	93.668046 
3744.000000	93.672666 
3743.000000	93.711371 
3742.000000	93.736707 
3741.000000	93.743014 
3740.000000	93.749978 
3739.000000	93.762025 
3738.000000	93.761073 
3737.000000	93.745152 
3736.000000	93.733796 
3735.000000	93.728749 
3734.000000	93.723659 
3733.000000	93.726657 
3732.000000	93.743421 
3731.000000	93.766671 
3730.000000	93.781832 
3729.000000	93.780659 
3728.000000	93.771724 
3727.000000	93.769692 
3726.000000	93.774315 
3725.000000	93.767999 
3724.000000	93.743932 
3723.000000	93.715808 
3722.000000	93.698444 
3721.000000	93.691165 
3720.000000	93.684941 
3719.000000	93.678471 
3718.000000	93.679435 
3717.000000	93.693151 
3716.000000	93.710464 
3715.000000	93.717789 
3714.000000	93.713301 
3713.000000	93.707920 
3712.000000	93.702394 
3711.000000	93.680502 
3710.000000	93.640120 
3709.000000	93.602395 
3708.000000	93.578336 
3707.000000	93.562963 
3706.000000	93.546401 
3705.000000	93.516936 
3704.000000	93.469226 
3703.000000	93.411160 
3702.000000	93.357287 
3701.000000	93.317545 
3700.000000	93.290205 
3699.000000	93.269167 
3698.000000	93.252570 
3697.000000	93.246446 
3696.000000	93.252351 
3695.000000	93.260399 
3694.000000	93.261141 
3693.000000	93.256156 
3692.000000	93.256287 
3691.000000	93.270963 
3690.000000	93.300246 
3689.000000	93.333148 
3688.000000	93.362374 
3687.000000	93.385874 
3686.000000	93.396518 
3685.000000	93.390805 
3684.000000	93.369995 
3683.000000	93.316252 
3682.000000	93.175961 
3681.000000	92.887548 
3680.000000	92.436560 
3679.000000	91.879883 
3678.000000	91.335657 
3677.000000	90.980048 
3676.000000	91.010872 
3675.000000	91.421080 
3674.000000	91.927349 
3673.000000	92.303161 
3672.000000	92.535006 
3671.000000	92.698471 
3670.000000	92.833805 
3669.000000	92.919252 
3668.000000	92.948731 
3667.000000	92.942717 
3666.000000	92.911235 
3665.000000	92.848759 
3664.000000	92.746131 
3663.000000	92.611551 
3662.000000	92.483862 
3661.000000	92.414343 
3660.000000	92.427987 
3659.000000	92.505462 
3658.000000	92.606869 
3657.000000	92.698926 
3656.000000	92.763979 
3655.000000	92.795458 
3654.000000	92.794661 
3653.000000	92.768924 
3652.000000	92.741458 
3651.000000	92.744541 
3650.000000	92.777712 
3649.000000	92.776358 
3648.000000	92.715399 
3647.000000	92.652400 
3646.000000	92.628926 
3645.000000	92.636322 
3644.000000	92.652395 
3643.000000	92.665956 
3642.000000	92.672021 
3641.000000	92.667901 
3640.000000	92.654184 
3639.000000	92.639693 
3638.000000	92.634119 
3637.000000	92.635411 
3636.000000	92.633889 
3635.000000	92.628472 
3634.000000	92.631244 
3633.000000	92.646619 
3632.000000	92.660162 
3631.000000	92.653451 
3630.000000	92.630276 
3629.000000	92.601239 
3628.000000	92.561809 
3627.000000	92.519033 
3626.000000	92.478288 
3625.000000	92.444330 
3624.000000	92.421463 
3623.000000	92.404995 
3622.000000	92.381866 
3621.000000	92.346838 
3620.000000	92.308582 
3619.000000	92.280812 
3618.000000	92.269986 
3617.000000	92.274757 
3616.000000	92.287897 
3615.000000	92.302911 
3614.000000	92.318831 
3613.000000	92.334006 
3612.000000	92.344346 
3611.000000	92.345092 
3610.000000	92.330572 
3609.000000	92.298527 
3608.000000	92.251858 
3607.000000	92.202271 
3606.000000	92.165518 
3605.000000	92.147314 
3604.000000	92.141302 
3603.000000	92.138165 
3602.000000	92.131249 
3601.000000	92.116819 
3600.000000	92.094449 
3599.000000	92.067070 
3598.000000	92.039710 
3597.000000	92.014956 
3596.000000	91.993720 
3595.000000	91.974606 
3594.000000	91.959137 
3593.000000	91.951139 
3592.000000	91.951416 
3591.000000	91.952663 
3590.000000	91.946139 
3589.000000	91.927837 
3588.000000	91.896403 
3587.000000	91.849814 
3586.000000	91.802472 
3585.000000	91.775507 
3584.000000	91.768516 
3583.000000	91.769557 
3582.000000	91.768031 
3581.000000	91.755940 
3580.000000	91.732332 
3579.000000	91.702912 
3578.000000	91.675724 
3577.000000	91.654895 
3576.000000	91.639798 
3575.000000	91.627656 
3574.000000	91.616554 
3573.000000	91.606636 
3572.000000	91.597761 
3571.000000	91.587321 
3570.000000	91.571485 
3569.000000	91.552326 
3568.000000	91.532495 
3567.000000	91.499643 
3566.000000	91.446722 
3565.000000	91.398352 
3564.000000	91.375027 
3563.000000	91.371116 
3562.000000	91.371728 
3561.000000	91.366253 
3560.000000	91.351036 
3559.000000	91.330208 
3558.000000	91.309789 
3557.000000	91.292853 
3556.000000	91.278533 
3555.000000	91.263673 
3554.000000	91.244091 
3553.000000	91.218387 
3552.000000	91.191114 
3551.000000	91.170761 
3550.000000	91.161878 
3549.000000	91.160802 
3548.000000	91.159478 
3547.000000	91.149433 
3546.000000	91.122987 
3545.000000	91.080515 
3544.000000	91.034689 
3543.000000	90.998138 
3542.000000	90.973862 
3541.000000	90.958292 
3540.000000	90.945754 
3539.000000	90.932031 
3538.000000	90.913813 
3537.000000	90.888189 
3536.000000	90.855300 
3535.000000	90.819967 
3534.000000	90.789819 
3533.000000	90.769175 
3532.000000	90.756805 
3531.000000	90.747334 
3530.000000	90.735934 
3529.000000	90.720496 
3528.000000	90.702155 
3527.000000	90.682521 
3526.000000	90.661835 
3525.000000	90.638284 
3524.000000	90.609351 
3523.000000	90.574636 
3522.000000	90.537982 
3521.000000	90.505585 
3520.000000	90.480390 
3519.000000	90.460536 
3518.000000	90.442055 
3517.000000	90.421079 
3516.000000	90.396659 
3515.000000	90.371374 
3514.000000	90.349263 
3513.000000	90.331775 
3512.000000	90.316628 
3511.000000	90.299495 
3510.000000	90.277606 
3509.000000	90.251567 
3508.000000	90.225917 
3507.000000	90.205474 
3506.000000	90.191370 
3505.000000	90.181670 
3504.000000	90.171394 
3503.000000	90.152880 
3502.000000	90.123718 
3501.000000	90.090520 
3500.000000	90.061189 
3499.000000	90.038265 
3498.000000	90.019257 
3497.000000	90.000031 
3496.000000	89.978103 
3495.000000	89.953944 
3494.000000	89.930265 
3493.000000	89.909549 
3492.000000	89.892238 
3491.000000	89.877379 
3490.000000	89.863754 
3489.000000	89.849690 
3488.000000	89.833426 
3487.000000	89.814403 
3486.000000	89.793828 
3485.000000	89.773941 
3484.000000	89.756838 
3483.000000	89.742952 
3482.000000	89.730271 
3481.000000	89.714912 
3480.000000	89.694835 
3479.000000	89.672152 
3478.000000	89.650631 
3477.000000	89.632000 
3476.000000	89.615080 
3475.000000	89.597705 
3474.000000	89.579472 
3473.000000	89.562613 
3472.000000	89.549587 
3471.000000	89.540547 
3470.000000	89.532894 
3469.000000	89.522815 
3468.000000	89.508286 
3467.000000	89.490903 
3466.000000	89.473556 
3465.000000	89.457229 
3464.000000	89.441176 
3463.000000	89.425573 
3462.000000	89.412155 
3461.000000	89.401183 
3460.000000	89.389804 
3459.000000	89.374881 
3458.000000	89.356525 
3457.000000	89.338084 
3456.000000	89.322847 
3455.000000	89.310997 
3454.000000	89.300762 
3453.000000	89.291265 
3452.000000	89.284403 
3451.000000	89.281724 
3450.000000	89.281390 
3449.000000	89.279199 
3448.000000	89.272168 
3447.000000	89.260999 
3446.000000	89.249772 
3445.000000	89.242190 
3444.000000	89.238097 
3443.000000	89.234732 
3442.000000	89.229994 
3441.000000	89.224688 
3440.000000	89.221344 
3439.000000	89.220885 
3438.000000	89.221615 
3437.000000	89.221463 
3436.000000	89.220108 
3435.000000	89.218280 
3434.000000	89.216530 
3433.000000	89.214709 
3432.000000	89.212722 
3431.000000	89.209672 
3430.000000	89.204266 
3429.000000	89.196813 
3428.000000	89.189785 
3427.000000	89.185784 
3426.000000	89.185670 
3425.000000	89.189147 
3424.000000	89.195275 
3423.000000	89.201725 
3422.000000	89.204953 
3421.000000	89.202802 
3420.000000	89.196533 
3419.000000	89.189181 
3418.000000	89.183151 
3417.000000	89.179847 
3416.000000	89.180164 
3415.000000	89.183726 
3414.000000	89.188325 
3413.000000	89.191506 
3412.000000	89.192416 
3411.000000	89.191775 
3410.000000	89.190796 
3409.000000	89.190587 
3408.000000	89.191400 
3407.000000	89.192250 
3406.000000	89.192093 
3405.000000	89.191753 
3404.000000	89.193198 
3403.000000	89.196618 
3402.000000	89.199926 
3401.000000	89.201353 
3400.000000	89.201600 
3399.000000	89.202360 
3398.000000	89.204131 
3397.000000	89.206105 
3396.000000	89.207785 
3395.000000	89.209490 
3394.000000	89.211142 
3393.000000	89.211778 
3392.000000	89.210790 
3391.000000	89.209131 
3390.000000	89.208637 
3389.000000	89.210443 
3388.000000	89.214043 
3387.000000	89.217957 
3386.000000	89.221068 
3385.000000	89.223300 
3384.000000	89.225307 
3383.000000	89.227594 
3382.000000	89.230256 
3381.000000	89.232924 
3380.000000	89.235239 
3379.000000	89.237082 
3378.000000	89.238627 
3377.000000	89.240074 
3376.000000	89.241625 
3375.000000	89.243852 
3374.000000	89.247554 
3373.000000	89.253111 
3372.000000	89.259930 
3371.000000	89.266705 
3370.000000	89.271942 
3369.000000	89.274746 
3368.000000	89.275484 
3367.000000	89.275824 
3366.000000	89.277583 
3365.000000	89.281500 
3364.000000	89.287205 
3363.000000	89.294011 
3362.000000	89.301199 
3361.000000	89.307916 
3360.000000	89.313591 
3359.000000	89.318562 
3358.000000	89.323786 
3357.000000	89.329769 
3356.000000	89.336139 
3355.000000	89.342297 
3354.000000	89.348086 
3353.000000	89.353777 
3352.000000	89.359620 
3351.000000	89.365654 
3350.000000	89.371738 
3349.000000	89.377868 
3348.000000	89.384332 
3347.000000	89.391505 
3346.000000	89.399250 
3345.000000	89.406705 
3344.000000	89.413219 
3343.000000	89.419047 
3342.000000	89.425034 
3341.000000	89.431635 
3340.000000	89.438722 
3339.000000	89.445930 
3338.000000	89.452553 
3337.000000	89.457563 
3336.000000	89.460626 
3335.000000	89.462958 
3334.000000	89.466289 
3333.000000	89.471246 
3332.000000	89.477556 
3331.000000	89.485341 
3330.000000	89.495066 
3329.000000	89.506269 
3328.000000	89.517312 
3327.000000	89.526582 
3326.000000	89.533212 
3325.000000	89.536714 
3324.000000	89.537470 
3323.000000	89.537767 
3322.000000	89.540995 
3321.000000	89.548677 
3320.000000	89.559240 
3319.000000	89.570214 
3318.000000	89.580498 
3317.000000	89.589707 
3316.000000	89.597041 
3315.000000	89.602337 
3314.000000	89.607497 
3313.000000	89.615016 
3312.000000	89.625178 
3311.000000	89.635973 
3310.000000	89.645794 
3309.000000	89.654911 
3308.000000	89.664068 
3307.000000	89.672714 
3306.000000	89.679190 
3305.000000	89.682329 
3304.000000	89.682676 
3303.000000	89.682540 
3302.000000	89.684802 
3301.000000	89.690986 
3300.000000	89.700213 
3299.000000	89.710027 
3298.000000	89.718497 
3297.000000	89.725400 
3296.000000	89.732020 
3295.000000	89.739858 
3294.000000	89.749206 
3293.000000	89.758434 
3292.000000	89.765091 
3291.000000	89.768337 
3290.000000	89.769996 
3289.000000	89.772640 
3288.000000	89.777107 
3287.000000	89.782476 
3286.000000	89.787935 
3285.000000	89.793542 
3284.000000	89.799288 
3283.000000	89.804702 
3282.000000	89.809602 
3281.000000	89.814584 
3280.000000	89.820428 
3279.000000	89.827720 
3278.000000	89.836843 
3277.000000	89.847429 
3276.000000	89.857961 
3275.000000	89.866862 
3274.000000	89.874364 
3273.000000	89.882448 
3272.000000	89.892420 
3271.000000	89.903042 
3270.000000	89.911680 
3269.000000	89.916954 
3268.000000	89.919960 
3267.000000	89.923085 
3266.000000	89.927938 
3265.000000	89.934191 
3264.000000	89.940406 
3263.000000	89.946058 
3262.000000	89.952170 
3261.000000	89.960006 
3260.000000	89.969552 
3259.000000	89.980060 
3258.000000	89.991118 
3257.000000	90.002515 
3256.000000	90.013455 
3255.000000	90.022820 
3254.000000	90.030438 
3253.000000	90.037532 
3252.000000	90.045967 
3251.000000	90.056803 
3250.000000	90.069685 
3249.000000	90.083166 
3248.000000	90.095850 
3247.000000	90.107233 
3246.000000	90.117134 
3245.000000	90.124831 
3244.000000	90.130056 
3243.000000	90.134729 
3242.000000	90.141938 
3241.000000	90.152763 
3240.000000	90.165441 
3239.000000	90.178213 
3238.000000	90.191239 
3237.000000	90.204998 
3236.000000	90.218393 
3235.000000	90.230003 
3234.000000	90.240087 
3233.000000	90.249754 
3232.000000	90.259139 
3231.000000	90.267605 
3230.000000	90.275280 
3229.000000	90.282824 
3228.000000	90.290084 
3227.000000	90.296534 
3226.000000	90.302903 
3225.000000	90.311186 
3224.000000	90.322984 
3223.000000	90.338324 
3222.000000	90.355595 
3221.000000	90.371979 
3220.000000	90.384799 
3219.000000	90.394007 
3218.000000	90.402556 
3217.000000	90.413401 
3216.000000	90.426465 
3215.000000	90.439472 
3214.000000	90.450919 
3213.000000	90.461368 
3212.000000	90.472207 
3211.000000	90.484027 
3210.000000	90.496416 
3209.000000	90.508750 
3208.000000	90.520784 
3207.000000	90.532581 
3206.000000	90.543892 
3205.000000	90.554159 
3204.000000	90.563496 
3203.000000	90.573548 
3202.000000	90.586229 
3201.000000	90.601596 
3200.000000	90.617510 
3199.000000	90.631806 
3198.000000	90.643907 
3197.000000	90.654720 
3196.000000	90.665875 
3195.000000	90.679100 
3194.000000	90.694980 
3193.000000	90.711912 
3192.000000	90.727304 
3191.000000	90.740094 
3190.000000	90.751488 
3189.000000	90.763094 
3188.000000	90.775513 
3187.000000	90.788731 
3186.000000	90.802188 
3185.000000	90.814533 
3184.000000	90.824787 
3183.000000	90.834500 
3182.000000	90.846675 
3181.000000	90.862218 
3180.000000	90.878816 
3179.000000	90.893933 
3178.000000	90.907447 
3177.000000	90.920555 
3176.000000	90.933409 
3175.000000	90.945155 
3174.000000	90.955626 
3173.000000	90.965910 
3172.000000	90.977676 
3171.000000	90.992174 
3170.000000	91.009134 
3169.000000	91.026188 
3168.000000	91.040489 
3167.000000	91.051519 
3166.000000	91.061342 
3165.000000	91.072162 
3164.000000	91.084696 
3163.000000	91.099026 
3162.000000	91.115076 
3161.000000	91.131679 
3160.000000	91.146528 
3159.000000	91.158077 
3158.000000	91.166914 
3157.000000	91.174830 
3156.000000	91.183366 
3155.000000	91.193567 
3154.000000	91.205916 
3153.000000	91.219862 
3152.000000	91.234243 
3151.000000	91.248609 
3150.000000	91.263309 
3149.000000	91.277967 
3148.000000	91.291055 
3147.000000	91.301733 
3146.000000	91.311294 
3145.000000	91.321954 
3144.000000	91.334794 
3143.000000	91.349300 
3142.000000	91.364002 
3141.000000	91.376875 
3140.000000	91.386396 
3139.000000	91.393207 
3138.000000	91.400219 
3137.000000	91.409955 
3136.000000	91.422406 
3135.000000	91.435788 
3134.000000	91.448388 
3133.000000	91.459184 
3132.000000	91.468269 
3131.000000	91.477285 
3130.000000	91.488333 
3129.000000	91.501744 
3128.000000	91.515881 
3127.000000	91.529143 
3126.000000	91.541425 
3125.000000	91.553370 
3124.000000	91.565185 
3123.000000	91.576802 
3122.000000	91.588464 
3121.000000	91.600654 
3120.000000	91.613650 
3119.000000	91.627395 
3118.000000	91.641388 
3117.000000	91.654222 
3116.000000	91.664250 
3115.000000	91.671360 
3114.000000	91.677601 
3113.000000	91.685669 
3112.000000	91.697059 
3111.000000	91.711222 
3110.000000	91.726161 
3109.000000	91.739939 
3108.000000	91.752296 
3107.000000	91.764357 
3106.000000	91.776827 
3105.000000	91.789176 
3104.000000	91.800668 
3103.000000	91.811447 
3102.000000	91.822017 
3101.000000	91.832550 
3100.000000	91.843012 
3099.000000	91.853972 
3098.000000	91.866336 
3097.000000	91.880101 
3096.000000	91.893784 
3095.000000	91.905387 
3094.000000	91.914116 
3093.000000	91.921275 
3092.000000	91.929328 
3091.000000	91.939861 
3090.000000	91.952293 
3089.000000	91.964653 
3088.000000	91.975899 
3087.000000	91.986770 
3086.000000	91.998277 
3085.000000	92.010241 
3084.000000	92.021962 
3083.000000	92.033732 
3082.000000	92.046455 
3081.000000	92.060010 
3080.000000	92.072901 
3079.000000	92.083980 
3078.000000	92.093685 
3077.000000	92.103455 
3076.000000	92.114507 
3075.000000	92.127086 
3074.000000	92.140569 
3073.000000	92.153963 
3072.000000	92.166732 
3071.000000	92.178950 
3070.000000	92.190863 
3069.000000	92.202721 
3068.000000	92.214991 
3067.000000	92.228150 
3066.000000	92.241827 
3065.000000	92.254829 
3064.000000	92.266429 
3063.000000	92.277212 
3062.000000	92.288038 
3061.000000	92.298837 
3060.000000	92.309031 
3059.000000	92.318863 
3058.000000	92.329420 
3057.000000	92.341247 
3056.000000	92.354015 
3055.000000	92.367037 
3054.000000	92.379679 
3053.000000	92.391152 
3052.000000	92.401117 
3051.000000	92.410433 
3050.000000	92.420103 
3049.000000	92.429580 
3048.000000	92.437168 
3047.000000	92.442541 
3046.000000	92.447449 
3045.000000	92.453612 
3044.000000	92.461078 
3043.000000	92.469197 
3042.000000	92.477653 
3041.000000	92.485850 
3040.000000	92.492542 
3039.000000	92.497304 
3038.000000	92.501377 
3037.000000	92.506083 
3036.000000	92.511539 
3035.000000	92.517481 
3034.000000	92.524264 
3033.000000	92.531409 
3032.000000	92.536541 
3031.000000	92.537488 
3030.000000	92.534963 
3029.000000	92.532206 
3028.000000	92.531965 
3027.000000	92.535155 
3026.000000	92.540961 
3025.000000	92.547420 
3024.000000	92.552410 
3023.000000	92.555119 
3022.000000	92.556471 
3021.000000	92.557565 
3020.000000	92.558069 
3019.000000	92.557045 
3018.000000	92.554706 
3017.000000	92.552443 
3016.000000	92.550880 
3015.000000	92.548939 
3014.000000	92.544848 
3013.000000	92.537501 
3012.000000	92.526966 
3011.000000	92.514344 
3010.000000	92.500964 
3009.000000	92.487136 
3008.000000	92.471620 
3007.000000	92.452944 
3006.000000	92.430915 
3005.000000	92.406408 
3004.000000	92.379723 
3003.000000	92.349987 
3002.000000	92.316333 
3001.000000	92.279332 
3000.000000	92.240834 
2999.000000	92.202584 
2998.000000	92.164779 
2997.000000	92.125730 
2996.000000	92.083047 
2995.000000	92.035817 
2994.000000	91.985587 
2993.000000	91.935152 
2992.000000	91.886278 
2991.000000	91.838635 
2990.000000	91.790598 
2989.000000	91.740684 
2988.000000	91.688807 
2987.000000	91.636577 
2986.000000	91.586258 
2985.000000	91.538871 
2984.000000	91.493482 
2983.000000	91.448540 
2982.000000	91.403528 
2981.000000	91.359110 
2980.000000	91.316016 
2979.000000	91.274143 
2978.000000	91.232510 
2977.000000	91.189814 
2976.000000	91.145149 
2975.000000	91.098304 
2974.000000	91.049239 
2973.000000	90.997434 
2972.000000	90.942147 
2971.000000	90.883450 
2970.000000	90.822387 
2969.000000	90.760150 
2968.000000	90.697575 
2967.000000	90.635738 
2966.000000	90.576121 
2965.000000	90.519775 
2964.000000	90.466802 
2963.000000	90.417023 
2962.000000	90.370615 
2961.000000	90.327801 
2960.000000	90.288673 
2959.000000	90.253816 
2958.000000	90.224842 
2957.000000	90.203678 
2956.000000	90.191423 
2955.000000	90.187606 
2954.000000	90.189871 
2953.000000	90.194281 
2952.000000	90.196699 
2951.000000	90.194325 
2950.000000	90.185723 
2949.000000	90.169818 
2948.000000	90.145633 
2947.000000	90.112919 
2946.000000	90.072061 
2945.000000	90.023246 
2944.000000	89.966326 
2943.000000	89.901414 
2942.000000	89.828866 
2941.000000	89.748770 
2940.000000	89.661484 
2939.000000	89.568637 
2938.000000	89.472801 
2937.000000	89.376129 
2936.000000	89.280048 
2935.000000	89.185602 
2934.000000	89.092661 
2933.000000	88.999185 
2932.000000	88.903241 
2931.000000	88.805802 
2930.000000	88.710153 
2929.000000	88.617931 
2928.000000	88.527789 
2927.000000	88.438128 
2926.000000	88.349719 
2925.000000	88.265100 
2924.000000	88.187779 
2923.000000	88.123323 
2922.000000	88.079565 
2921.000000	88.064520 
2920.000000	88.084574 
2919.000000	88.145072 
2918.000000	88.249941 
2917.000000	88.398382 
2916.000000	88.582753 
2915.000000	88.790512 
2914.000000	89.008188 
2913.000000	89.223412 
2912.000000	89.425994 
2911.000000	89.609666 
2910.000000	89.772866 
2909.000000	89.916755 
2908.000000	90.043202 
2907.000000	90.154591 
2906.000000	90.254208 
2905.000000	90.345499 
2904.000000	90.431346 
2903.000000	90.514015 
2902.000000	90.595053 
2901.000000	90.672859 
2900.000000	90.746164 
2899.000000	90.814750 
2898.000000	90.880295 
2897.000000	90.944131 
2896.000000	91.005847 
2895.000000	91.064531 
2894.000000	91.120023 
2893.000000	91.172508 
2892.000000	91.222109 
2891.000000	91.269327 
2890.000000	91.314509 
2889.000000	91.356404 
2888.000000	91.392614 
2887.000000	91.422409 
2886.000000	91.447764 
2885.000000	91.470923 
2884.000000	91.491902 
2883.000000	91.508902 
2882.000000	91.520139 
2881.000000	91.524651 
2880.000000	91.522830 
2879.000000	91.517027 
2878.000000	91.510777 
2877.000000	91.506306 
2876.000000	91.503771 
2875.000000	91.503029 
2874.000000	91.505009 
2873.000000	91.510703 
2872.000000	91.520183 
2871.000000	91.533484 
2870.000000	91.551100 
2869.000000	91.572269 
2868.000000	91.593536 
2867.000000	91.610267 
2866.000000	91.618962 
2865.000000	91.618071 
2864.000000	91.607591 
2863.000000	91.588853 
2862.000000	91.563328 
2861.000000	91.530649 
2860.000000	91.488528 
2859.000000	91.435523 
2858.000000	91.373020 
2857.000000	91.303451 
2856.000000	91.227985 
2855.000000	91.147374 
2854.000000	91.065351 
2853.000000	90.991156 
2852.000000	90.940007 
2851.000000	90.931090 
2850.000000	90.981957 
2849.000000	91.099925 
2848.000000	91.276587 
2847.000000	91.489496 
2846.000000	91.711307 
2845.000000	91.919233 
2844.000000	92.101058 
2843.000000	92.255278 
2842.000000	92.386648 
2841.000000	92.499995 
2840.000000	92.597899 
2839.000000	92.682070 
2838.000000	92.754906 
2837.000000	92.818763 
2836.000000	92.874899 
2835.000000	92.924151 
2834.000000	92.968208 
2833.000000	93.009375 
2832.000000	93.049338 
2831.000000	93.088221 
2830.000000	93.124697 
2829.000000	93.156966 
2828.000000	93.184520 
2827.000000	93.209011 
2826.000000	93.232859 
2825.000000	93.257266 
2824.000000	93.282026 
2823.000000	93.306759 
2822.000000	93.331064 
2821.000000	93.353822 
2820.000000	93.373896 
2819.000000	93.391630 
2818.000000	93.408440 
2817.000000	93.424864 
2816.000000	93.440555 
2815.000000	93.456198 
2814.000000	93.473619 
2813.000000	93.493286 
2812.000000	93.513204 
2811.000000	93.531126 
2810.000000	93.546545 
2809.000000	93.560012 
2808.000000	93.571795 
2807.000000	93.582218 
2806.000000	93.592347 
2805.000000	93.603243 
2804.000000	93.615131 
2803.000000	93.627868 
2802.000000	93.641562 
2801.000000	93.656037 
2800.000000	93.670337 
2799.000000	93.683401 
2798.000000	93.694849 
2797.000000	93.704966 
2796.000000	93.714435 
2795.000000	93.724162 
2794.000000	93.734546 
2793.000000	93.744770 
2792.000000	93.753698 
2791.000000	93.761586 
2790.000000	93.769931 
2789.000000	93.779495 
2788.000000	93.789532 
2787.000000	93.799199 
2786.000000	93.808496 
2785.000000	93.817475 
2784.000000	93.825713 
2783.000000	93.833252 
2782.000000	93.841135 
2781.000000	93.850313 
2780.000000	93.860757 
2779.000000	93.871930 
2778.000000	93.883234 
2777.000000	93.893622 
2776.000000	93.901772 
2775.000000	93.907423 
2774.000000	93.911899 
2773.000000	93.916762 
2772.000000	93.922653 
2771.000000	93.929684 
2770.000000	93.938008 
2769.000000	93.947358 
2768.000000	93.956605 
2767.000000	93.964482 
2766.000000	93.970605 
2765.000000	93.975608 
2764.000000	93.980706 
2763.000000	93.987034 
2762.000000	93.994693 
2761.000000	94.002318 
2760.000000	94.008373 
2759.000000	94.012862 
2758.000000	94.017076 
2757.000000	94.021747 
2756.000000	94.026473 
2755.000000	94.031120 
2754.000000	94.036568 
2753.000000	94.043432 
2752.000000	94.050907 
2751.000000	94.057598 
2750.000000	94.063005 
2749.000000	94.067658 
2748.000000	94.072217 
2747.000000	94.076868 
2746.000000	94.081469 
2745.000000	94.086046 
2744.000000	94.091126 
2743.000000	94.097344 
2742.000000	94.104435 
2741.000000	94.110992 
2740.000000	94.115722 
2739.000000	94.118759 
2738.000000	94.121275 
2737.000000	94.124287 
2736.000000	94.128436 
2735.000000	94.134331 
2734.000000	94.142076 
2733.000000	94.150619 
2732.000000	94.158439 
2731.000000	94.164788 
2730.000000	94.169837 
2729.000000	94.174140 
2728.000000	94.178615 
2727.000000	94.184395 
2726.000000	94.191779 
2725.000000	94.199792 
2724.000000	94.207640 
2723.000000	94.215752 
2722.000000	94.224275 
2721.000000	94.231515 
2720.000000	94.235748 
2719.000000	94.238051 
2718.000000	94.241494 
2717.000000	94.247561 
2716.000000	94.254906 
2715.000000	94.261674 
2714.000000	94.267453 
2713.000000	94.272797 
2712.000000	94.278334 
2711.000000	94.284658 
2710.000000	94.291911 
2709.000000	94.299159 
2708.000000	94.305167 
2707.000000	94.309841 
2706.000000	94.314034 
2705.000000	94.318195 
2704.000000	94.322464 
2703.000000	94.327692 
2702.000000	94.334698 
2701.000000	94.342460 
2700.000000	94.348591 
2699.000000	94.352082 
2698.000000	94.354332 
2697.000000	94.357274 
2696.000000	94.361609 
2695.000000	94.367039 
2694.000000	94.372947 
2693.000000	94.378417 
2692.000000	94.382595 
2691.000000	94.385459 
2690.000000	94.387649 
2689.000000	94.389647 
2688.000000	94.391899 
2687.000000	94.395344 
2686.000000	94.400617 
2685.000000	94.406880 
2684.000000	94.412597 
2683.000000	94.417341 
2682.000000	94.421743 
2681.000000	94.425913 
2680.000000	94.429270 
2679.000000	94.431741 
2678.000000	94.433798 
2677.000000	94.435369 
2676.000000	94.436139 
2675.000000	94.436939 
2674.000000	94.439418 
2673.000000	94.444121 
2672.000000	94.449997 
2671.000000	94.455748 
2670.000000	94.460505 
2669.000000	94.463297 
2668.000000	94.463356 
2667.000000	94.461074 
2666.000000	94.457459 
2665.000000	94.452675 
2664.000000	94.446358 
2663.000000	94.439275 
2662.000000	94.433056 
2661.000000	94.428119 
2660.000000	94.423274 
2659.000000	94.417766 
2658.000000	94.412515 
2657.000000	94.408916 
2656.000000	94.407432 
2655.000000	94.407602 
2654.000000	94.408535 
2653.000000	94.409319 
2652.000000	94.409856 
2651.000000	94.411193 
2650.000000	94.414016 
2649.000000	94.417127 
2648.000000	94.418716 
2647.000000	94.418890 
2646.000000	94.419523 
2645.000000	94.421753 
2644.000000	94.425201 
2643.000000	94.429481 
2642.000000	94.434707 
2641.000000	94.440341 
2640.000000	94.445167 
2639.000000	94.448854 
2638.000000	94.452213 
2637.000000	94.455814 
2636.000000	94.459615 
2635.000000	94.463883 
2634.000000	94.469077 
2633.000000	94.474859 
2632.000000	94.480590 
2631.000000	94.486551 
2630.000000	94.493145 
2629.000000	94.499352 
2628.000000	94.503914 
2627.000000	94.507622 
2626.000000	94.512338 
2625.000000	94.517940 
2624.000000	94.522680 
2623.000000	94.526515 
2622.000000	94.531447 
2621.000000	94.538059 
2620.000000	94.544244 
2619.000000	94.548273 
2618.000000	94.550952 
2617.000000	94.553861 
2616.000000	94.557387 
2615.000000	94.561510 
2614.000000	94.566752 
2613.000000	94.573148 
2612.000000	94.579662 
2611.000000	94.585568 
2610.000000	94.591460 
2609.000000	94.598245 
2608.000000	94.606058 
2607.000000	94.614471 
2606.000000	94.622839 
2605.000000	94.630316 
2604.000000	94.636451 
2603.000000	94.641590 
2602.000000	94.645948 
2601.000000	94.649037 
2600.000000	94.651230 
2599.000000	94.654783 
2598.000000	94.661400 
2597.000000	94.669480 
2596.000000	94.675917 
2595.000000	94.680044 
2594.000000	94.683667 
2593.000000	94.687805 
2592.000000	94.691831 
2591.000000	94.695644 
2590.000000	94.700315 
2589.000000	94.706357 
2588.000000	94.713091 
2587.000000	94.719572 
2586.000000	94.724706 
2585.000000	94.727303 
2584.000000	94.727941 
2583.000000	94.729781 
2582.000000	94.735176 
2581.000000	94.742422 
2580.000000	94.748167 
2579.000000	94.751778 
2578.000000	94.754596 
2577.000000	94.756116 
2576.000000	94.754598 
2575.000000	94.751083 
2574.000000	94.749289 
2573.000000	94.751247 
2572.000000	94.755685 
2571.000000	94.760548 
2570.000000	94.764414 
2569.000000	94.765839 
2568.000000	94.764380 
2567.000000	94.762211 
2566.000000	94.761935 
2565.000000	94.763124 
2564.000000	94.763647 
2563.000000	94.763626 
2562.000000	94.764915 
2561.000000	94.767300 
2560.000000	94.768814 
2559.000000	94.769504 
2558.000000	94.771254 
2557.000000	94.774018 
2556.000000	94.775938 
2555.000000	94.777300 
2554.000000	94.780594 
2553.000000	94.786289 
2552.000000	94.792154 
2551.000000	94.797305 
2550.000000	94.803498 
2549.000000	94.811692 
2548.000000	94.820536 
2547.000000	94.828921 
2546.000000	94.836990 
2545.000000	94.844219 
2544.000000	94.849720 
2543.000000	94.855029 
2542.000000	94.863411 
2541.000000	94.875563 
2540.000000	94.888712 
2539.000000	94.900362 
2538.000000	94.910210 
2537.000000	94.918208 
2536.000000	94.923797 
2535.000000	94.927637 
2534.000000	94.931475 
2533.000000	94.936000 
2532.000000	94.941030 
2531.000000	94.947175 
2530.000000	94.954434 
2529.000000	94.960083 
2528.000000	94.961788 
2527.000000	94.962342 
2526.000000	94.967044 
2525.000000	94.976403 
2524.000000	94.985756 
2523.000000	94.992403 
2522.000000	94.998423 
2521.000000	95.005413 
2520.000000	95.011071 
2519.000000	95.013216 
2518.000000	95.013622 
2517.000000	95.015589 
2516.000000	95.020288 
2515.000000	95.027145 
2514.000000	95.035299 
2513.000000	95.043134 
2512.000000	95.048610 
2511.000000	95.051503 
2510.000000	95.053675 
2509.000000	95.056443 
2508.000000	95.059567 
2507.000000	95.063000 
2506.000000	95.067280 
2505.000000	95.071874 
2504.000000	95.075567 
2503.000000	95.078839 
2502.000000	95.083442 
2501.000000	95.089345 
2500.000000	95.094559 
2499.000000	95.098244 
2498.000000	95.101524 
2497.000000	95.105118 
2496.000000	95.108664 
2495.000000	95.112477 
2494.000000	95.117290 
2493.000000	95.122283 
2492.000000	95.126116 
2491.000000	95.129887 
2490.000000	95.136003 
2489.000000	95.143962 
2488.000000	95.150424 
2487.000000	95.154028 
2486.000000	95.157170 
2485.000000	95.162308 
2484.000000	95.169202 
2483.000000	95.176516 
2482.000000	95.183611 
2481.000000	95.190016 
2480.000000	95.195281 
2479.000000	95.199897 
2478.000000	95.204588 
2477.000000	95.208833 
2476.000000	95.212059 
2475.000000	95.215664 
2474.000000	95.221264 
2473.000000	95.227469 
2472.000000	95.231237 
2471.000000	95.232093 
2470.000000	95.232146 
2469.000000	95.232386 
2468.000000	95.232232 
2467.000000	95.232521 
2466.000000	95.235432 
2465.000000	95.240935 
2464.000000	95.246340 
2463.000000	95.249925 
2462.000000	95.252321 
2461.000000	95.254034 
2460.000000	95.254459 
2459.000000	95.253890 
2458.000000	95.253830 
2457.000000	95.254699 
2456.000000	95.255538 
2455.000000	95.256423 
2454.000000	95.258960 
2453.000000	95.264009 
2452.000000	95.270763 
2451.000000	95.278056 
2450.000000	95.284792 
2449.000000	95.289560 
2448.000000	95.292046 
2447.000000	95.294439 
2446.000000	95.299287 
2445.000000	95.306440 
2444.000000	95.314046 
2443.000000	95.321477 
2442.000000	95.328978 
2441.000000	95.335760 
2440.000000	95.341200 
2439.000000	95.346703 
2438.000000	95.353497 
2437.000000	95.359846 
2436.000000	95.363541 
2435.000000	95.365949 
2434.000000	95.370277 
2433.000000	95.377058 
2432.000000	95.384691 
2431.000000	95.393032 
2430.000000	95.402578 
2429.000000	95.411315 
2428.000000	95.416698 
2427.000000	95.420172 
2426.000000	95.425553 
2425.000000	95.433245 
2424.000000	95.440056 
2423.000000	95.444499 
2422.000000	95.448259 
2421.000000	95.452423 
2420.000000	95.456133 
2419.000000	95.459249 
2418.000000	95.462784 
2417.000000	95.466587 
2416.000000	95.469777 
2415.000000	95.473226 
2414.000000	95.478330 
2413.000000	95.483689 
2412.000000	95.486465 
2411.000000	95.486931 
2410.000000	95.488464 
2409.000000	95.493296 
2408.000000	95.501276 
2407.000000	95.512084 
2406.000000	95.525126 
2405.000000	95.537793 
2404.000000	95.547482 
2403.000000	95.554804 
2402.000000	95.561428 
2401.000000	95.566049 
2400.000000	95.566552 
2399.000000	95.565073 
2398.000000	95.566197 
2397.000000	95.570406 
2396.000000	95.574003 
2395.000000	95.575614 
2394.000000	95.577985 
2393.000000	95.582755 
2392.000000	95.588064 
2391.000000	95.592441 
2390.000000	95.596881 
2389.000000	95.601821 
2388.000000	95.605698 
2387.000000	95.607898 
2386.000000	95.610066 
2385.000000	95.613364 
2384.000000	95.617498 
2383.000000	95.623590 
2382.000000	95.635030 
2381.000000	95.653662 
2380.000000	95.677100 
2379.000000	95.700972 
2378.000000	95.721739 
2377.000000	95.736645 
2376.000000	95.744202 
2375.000000	95.745935 
2374.000000	95.744428 
2373.000000	95.738774 
2372.000000	95.727332 
2371.000000	95.716380 
2370.000000	95.717783 
2369.000000	95.733192 
2368.000000	95.748347 
2367.000000	95.749408 
2366.000000	95.738423 
2365.000000	95.727608 
2364.000000	95.725991 
2363.000000	95.734715 
2362.000000	95.747201 
2361.000000	95.750943 
2360.000000	95.736876 
2359.000000	95.713637 
2358.000000	95.703561 
2357.000000	95.715019 
2356.000000	95.734068 
2355.000000	95.743523 
2354.000000	95.744442 
2353.000000	95.747921 
2352.000000	95.754465 
2351.000000	95.756628 
2350.000000	95.750669 
2349.000000	95.741103 
2348.000000	95.732601 
2347.000000	95.724908 
2346.000000	95.717839 
2345.000000	95.710590 
2344.000000	95.703166 
2343.000000	95.692626 
2342.000000	95.682046 
2341.000000	95.679252 
2340.000000	95.683972 
2339.000000	95.691091 
2338.000000	95.696262 
2337.000000	95.700332 
2336.000000	95.704392 
2335.000000	95.710450 
2334.000000	95.717818 
2333.000000	95.723142 
2332.000000	95.719052 
2331.000000	95.706484 
2330.000000	95.689920 
2329.000000	95.669799 
2328.000000	95.635236 
2327.000000	95.575747 
2326.000000	95.495755 
2325.000000	95.413200 
2324.000000	95.353501 
2323.000000	95.334054 
2322.000000	95.353425 
2321.000000	95.391748 
2320.000000	95.426093 
2319.000000	95.449371 
2318.000000	95.465615 
2317.000000	95.481528 
2316.000000	95.498182 
2315.000000	95.515641 
2314.000000	95.530705 
2313.000000	95.539497 
2312.000000	95.539815 
2311.000000	95.535927 
2310.000000	95.532876 
2309.000000	95.531566 
2308.000000	95.530376 
2307.000000	95.530665 
2306.000000	95.534072 
2305.000000	95.538148 
2304.000000	95.538551 
2303.000000	95.535807 
2302.000000	95.533578 
2301.000000	95.533468 
2300.000000	95.533111 
2299.000000	95.531117 
2298.000000	95.527524 
2297.000000	95.522323 
2296.000000	95.515733 
2295.000000	95.510170 
2294.000000	95.507512 
2293.000000	95.505164 
2292.000000	95.498906 
2291.000000	95.488098 
2290.000000	95.475808 
2289.000000	95.464023 
2288.000000	95.453363 
2287.000000	95.445315 
2286.000000	95.441621 
2285.000000	95.441781 
2284.000000	95.445164 
2283.000000	95.453780 
2282.000000	95.469345 
2281.000000	95.489194 
2280.000000	95.509154 
2279.000000	95.528494 
2278.000000	95.547419 
2277.000000	95.562795 
2276.000000	95.571617 
2275.000000	95.576648 
2274.000000	95.582443 
2273.000000	95.588648 
2272.000000	95.593135 
2271.000000	95.598570 
2270.000000	95.608331 
2269.000000	95.618862 
2268.000000	95.624486 
2267.000000	95.628094 
2266.000000	95.637926 
2265.000000	95.654698 
2264.000000	95.670386 
2263.000000	95.679257 
2262.000000	95.682127 
2261.000000	95.679910 
2260.000000	95.671835 
2259.000000	95.660641 
2258.000000	95.652611 
2257.000000	95.651836 
2256.000000	95.659381 
2255.000000	95.676393 
2254.000000	95.700801 
2253.000000	95.723496 
2252.000000	95.735752 
2251.000000	95.739054 
2250.000000	95.739863 
2249.000000	95.737726 
2248.000000	95.729097 
2247.000000	95.717910 
2246.000000	95.714032 
2245.000000	95.719010 
2244.000000	95.724616 
2243.000000	95.726015 
2242.000000	95.727110 
2241.000000	95.731547 
2240.000000	95.737642 
2239.000000	95.743660 
2238.000000	95.749993 
2237.000000	95.754961 
2236.000000	95.755619 
2235.000000	95.753213 
2234.000000	95.751025 
2233.000000	95.747889 
2232.000000	95.741504 
2231.000000	95.736530 
2230.000000	95.740563 
2229.000000	95.752776 
2228.000000	95.765452 
2227.000000	95.775763 
2226.000000	95.786739 
2225.000000	95.798017 
2224.000000	95.805397 
2223.000000	95.809054 
2222.000000	95.812605 
2221.000000	95.814748 
2220.000000	95.811480 
2219.000000	95.805740 
2218.000000	95.805267 
2217.000000	95.811446 
2216.000000	95.819377 
2215.000000	95.827121 
2214.000000	95.834948 
2213.000000	95.838137 
2212.000000	95.832145 
2211.000000	95.823500 
2210.000000	95.823768 
2209.000000	95.833564 
2208.000000	95.843573 
2207.000000	95.849989 
2206.000000	95.856444 
2205.000000	95.861742 
2204.000000	95.859232 
2203.000000	95.849087 
2202.000000	95.839156 
2201.000000	95.832823 
2200.000000	95.827137 
2199.000000	95.822816 
2198.000000	95.824079 
2197.000000	95.828292 
2196.000000	95.827781 
2195.000000	95.822574 
2194.000000	95.819850 
2193.000000	95.820717 
2192.000000	95.819225 
2191.000000	95.814617 
2190.000000	95.812078 
2189.000000	95.810821 
2188.000000	95.803831 
2187.000000	95.790594 
2186.000000	95.778775 
2185.000000	95.773987 
2184.000000	95.779724 
2183.000000	95.804515 
2182.000000	95.852983 
2181.000000	95.908264 
2180.000000	95.940795 
2179.000000	95.939964 
2178.000000	95.923946 
2177.000000	95.917290 
2176.000000	95.930128 
2175.000000	95.957162 
2174.000000	95.982756 
2173.000000	95.985473 
2172.000000	95.951629 
2171.000000	95.889572 
2170.000000	95.822133 
2169.000000	95.765695 
2168.000000	95.723046 
2167.000000	95.693514 
2166.000000	95.677000 
2165.000000	95.666544 
2164.000000	95.650045 
2163.000000	95.626407 
2162.000000	95.617276 
2161.000000	95.664002 
2160.000000	95.808908 
2159.000000	96.058471 
2158.000000	96.347677 
2157.000000	96.566967 
2156.000000	96.651805 
2155.000000	96.629334 
2154.000000	96.566996 
2153.000000	96.506763 
2152.000000	96.456377 
2151.000000	96.415124 
2150.000000	96.384136 
2149.000000	96.360167 
2148.000000	96.341673 
2147.000000	96.337423 
2146.000000	96.353322 
2145.000000	96.376490 
2144.000000	96.388173 
2143.000000	96.387122 
2142.000000	96.384602 
2141.000000	96.383223 
2140.000000	96.377780 
2139.000000	96.372246 
2138.000000	96.378968 
2137.000000	96.402619 
2136.000000	96.438418 
2135.000000	96.482656 
2134.000000	96.529949 
2133.000000	96.563740 
2132.000000	96.566102 
2131.000000	96.537596 
2130.000000	96.495162 
2129.000000	96.453549 
2128.000000	96.417793 
2127.000000	96.389995 
2126.000000	96.370783 
2125.000000	96.354953 
2124.000000	96.335803 
2123.000000	96.314175 
2122.000000	96.295233 
2121.000000	96.278316 
2120.000000	96.258642 
2119.000000	96.236904 
2118.000000	96.217555 
2117.000000	96.199162 
2116.000000	96.176687 
2115.000000	96.152991 
2114.000000	96.137973 
2113.000000	96.135496 
2112.000000	96.139584 
2111.000000	96.144370 
2110.000000	96.149271 
2109.000000	96.154159 
2108.000000	96.157866 
2107.000000	96.162315 
2106.000000	96.170154 
2105.000000	96.178141 
2104.000000	96.180511 
2103.000000	96.178757 
2102.000000	96.179815 
2101.000000	96.185449 
2100.000000	96.191259 
2099.000000	96.196556 
2098.000000	96.207398 
2097.000000	96.229043 
2096.000000	96.261158 
2095.000000	96.298194 
2094.000000	96.328857 
2093.000000	96.340233 
2092.000000	96.330025 
2091.000000	96.310899 
2090.000000	96.295402 
2089.000000	96.282147 
2088.000000	96.264316 
2087.000000	96.245024 
2086.000000	96.232880 
2085.000000	96.227656 
2084.000000	96.222079 
2083.000000	96.215269 
2082.000000	96.212461 
2081.000000	96.213379 
2080.000000	96.212214 
2079.000000	96.208235 
2078.000000	96.205687 
2077.000000	96.204419 
2076.000000	96.201444 
2075.000000	96.199786 
2074.000000	96.205489 
2073.000000	96.217624 
2072.000000	96.229993 
2071.000000	96.241570 
2070.000000	96.254730 
2069.000000	96.266424 
2068.000000	96.272008 
2067.000000	96.274816 
2066.000000	96.281108 
2065.000000	96.288826 
2064.000000	96.292946 
2063.000000	96.296661 
2062.000000	96.304978 
2061.000000	96.313882 
2060.000000	96.316717 
2059.000000	96.315145 
2058.000000	96.312942 
2057.000000	96.308185 
2056.000000	96.302127 
2055.000000	96.302089 
2054.000000	96.300026 
2053.000000	96.264951 
2052.000000	96.181921 
2051.000000	96.090209 
2050.000000	96.054535 
2049.000000	96.096763 
2048.000000	96.177058 
2047.000000	96.247496 
2046.000000	96.294726 
2045.000000	96.322164 
2044.000000	96.329129 
2043.000000	96.322255 
2042.000000	96.318326 
2041.000000	96.322062 
2040.000000	96.320919 
2039.000000	96.308851 
2038.000000	96.294466 
2037.000000	96.284049 
2036.000000	96.278297 
2035.000000	96.287160 
2034.000000	96.323132 
2033.000000	96.376296 
2032.000000	96.421415 
2031.000000	96.451414 
2030.000000	96.478295 
2029.000000	96.503296 
2028.000000	96.514449 
2027.000000	96.513563 
2026.000000	96.515601 
2025.000000	96.522413 
2024.000000	96.523255 
2023.000000	96.522067 
2022.000000	96.534127 
2021.000000	96.555325 
2020.000000	96.565520 
2019.000000	96.564108 
2018.000000	96.571955 
2017.000000	96.594682 
2016.000000	96.614113 
2015.000000	96.620209 
2014.000000	96.620922 
2013.000000	96.618725 
2012.000000	96.604761 
2011.000000	96.580922 
2010.000000	96.565497 
2009.000000	96.572583 
2008.000000	96.602619 
2007.000000	96.651011 
2006.000000	96.705589 
2005.000000	96.740733 
2004.000000	96.736869 
2003.000000	96.705096 
2002.000000	96.672390 
2001.000000	96.649555 
2000.000000	96.630713 
1999.000000	96.612328 
1998.000000	96.597040 
1997.000000	96.581456 
1996.000000	96.559913 
1995.000000	96.539286 
1994.000000	96.532883 
1993.000000	96.538489 
1992.000000	96.540429 
1991.000000	96.536653 
1990.000000	96.538369 
1989.000000	96.543128 
1988.000000	96.535276 
1987.000000	96.512045 
1986.000000	96.487014 
1985.000000	96.466081 
1984.000000	96.439730 
1983.000000	96.400883 
1982.000000	96.353128 
1981.000000	96.304449 
1980.000000	96.273260 
1979.000000	96.293622 
1978.000000	96.389086 
1977.000000	96.531149 
1976.000000	96.654701 
1975.000000	96.725355 
1974.000000	96.760699 
1973.000000	96.785201 
1972.000000	96.800935 
1971.000000	96.805681 
1970.000000	96.806814 
1969.000000	96.808045 
1968.000000	96.805953 
1967.000000	96.806034 
1966.000000	96.818469 
1965.000000	96.834924 
1964.000000	96.837131 
1963.000000	96.829225 
1962.000000	96.835390 
1961.000000	96.864004 
1960.000000	96.897345 
1959.000000	96.920454 
1958.000000	96.933969 
1957.000000	96.935360 
1956.000000	96.916140 
1955.000000	96.882954 
1954.000000	96.857189 
1953.000000	96.847075 
1952.000000	96.840375 
1951.000000	96.830747 
1950.000000	96.825094 
1949.000000	96.825902 
1948.000000	96.827762 
1947.000000	96.830774 
1946.000000	96.839196 
1945.000000	96.847091 
1944.000000	96.844446 
1943.000000	96.837847 
1942.000000	96.844199 
1941.000000	96.863285 
1940.000000	96.876856 
1939.000000	96.875833 
1938.000000	96.868583 
1937.000000	96.862323 
1936.000000	96.855295 
1935.000000	96.850240 
1934.000000	96.855564 
1933.000000	96.866870 
1932.000000	96.868429 
1931.000000	96.859402 
1930.000000	96.851844 
1929.000000	96.850454 
1928.000000	96.850458 
1927.000000	96.849774 
1926.000000	96.852804 
1925.000000	96.857172 
1924.000000	96.859676 
1923.000000	96.863497 
1922.000000	96.869015 
1921.000000	96.867433 
1920.000000	96.854398 
1919.000000	96.843216 
1918.000000	96.849094 
1917.000000	96.860029 
1916.000000	96.855811 
1915.000000	96.838261 
1914.000000	96.822642 
1913.000000	96.813799 
1912.000000	96.806796 
1911.000000	96.805610 
1910.000000	96.817029 
1909.000000	96.832699 
1908.000000	96.837898 
1907.000000	96.832392 
1906.000000	96.827902 
1905.000000	96.825589 
1904.000000	96.821688 
1903.000000	96.819864 
1902.000000	96.823856 
1901.000000	96.829399 
1900.000000	96.831197 
1899.000000	96.831423 
1898.000000	96.835485 
1897.000000	96.839302 
1896.000000	96.839864 
1895.000000	96.845110 
1894.000000	96.857109 
1893.000000	96.860619 
1892.000000	96.844833 
1891.000000	96.825018 
1890.000000	96.826135 
1889.000000	96.845440 
1888.000000	96.860510 
1887.000000	96.864302 
1886.000000	96.865193 
1885.000000	96.866659 
1884.000000	96.864124 
1883.000000	96.858810 
1882.000000	96.855110 
1881.000000	96.852343 
1880.000000	96.847794 
1879.000000	96.844993 
1878.000000	96.850055 
1877.000000	96.857420 
1876.000000	96.856254 
1875.000000	96.851076 
1874.000000	96.854011 
1873.000000	96.861934 
1872.000000	96.861854 
1871.000000	96.855166 
1870.000000	96.860812 
1869.000000	96.883994 
1868.000000	96.903997 
1867.000000	96.911382 
1866.000000	96.911521 
1865.000000	96.904522 
1864.000000	96.889001 
1863.000000	96.872624 
1862.000000	96.865677 
1861.000000	96.866848 
1860.000000	96.868208 
1859.000000	96.869738 
1858.000000	96.874448 
1857.000000	96.877136 
1856.000000	96.872643 
1855.000000	96.866961 
1854.000000	96.868725 
1853.000000	96.875398 
1852.000000	96.879290 
1851.000000	96.878002 
1850.000000	96.881290 
1849.000000	96.894995 
1848.000000	96.913093 
1847.000000	96.930532 
1846.000000	96.952255 
1845.000000	96.983504 
1844.000000	97.014850 
1843.000000	97.026950 
1842.000000	97.010743 
1841.000000	96.973739 
1840.000000	96.932075 
1839.000000	96.903386 
1838.000000	96.898550 
1837.000000	96.906080 
1836.000000	96.908980 
1835.000000	96.905589 
1834.000000	96.902374 
1833.000000	96.894832 
1832.000000	96.871749 
1831.000000	96.843737 
1830.000000	96.846568 
1829.000000	96.876753 
1828.000000	96.889580 
1827.000000	96.871237 
1826.000000	96.853224 
1825.000000	96.862799 
1824.000000	96.883134 
1823.000000	96.889859 
1822.000000	96.885343 
1821.000000	96.881329 
1820.000000	96.881381 
1819.000000	96.892270 
1818.000000	96.922621 
1817.000000	96.956192 
1816.000000	96.965668 
1815.000000	96.949570 
1814.000000	96.928718 
1813.000000	96.913854 
1812.000000	96.895391 
1811.000000	96.879295 
1810.000000	96.883996 
1809.000000	96.899929 
1808.000000	96.903930 
1807.000000	96.896620 
1806.000000	96.891922 
1805.000000	96.887526 
1804.000000	96.872490 
1803.000000	96.854877 
1802.000000	96.856277 
1801.000000	96.876933 
1800.000000	96.889684 
1799.000000	96.892425 
1798.000000	96.900145 
1797.000000	96.909280 
1796.000000	96.905263 
1795.000000	96.890618 
1794.000000	96.886277 
1793.000000	96.904106 
1792.000000	96.919807 
1791.000000	96.911240 
1790.000000	96.886946 
1789.000000	96.854937 
1788.000000	96.815522 
1787.000000	96.779890 
1786.000000	96.764154 
1785.000000	96.762081 
1784.000000	96.746118 
1783.000000	96.705084 
1782.000000	96.661074 
1781.000000	96.644979 
1780.000000	96.647186 
1779.000000	96.643133 
1778.000000	96.627455 
1777.000000	96.608144 
1776.000000	96.585237 
1775.000000	96.550739 
1774.000000	96.515488 
1773.000000	96.506145 
1772.000000	96.511164 
1771.000000	96.492569 
1770.000000	96.452966 
1769.000000	96.398541 
1768.000000	96.315604 
1767.000000	96.205141 
1766.000000	96.090922 
1765.000000	95.979943 
1764.000000	95.847711 
1763.000000	95.675992 
1762.000000	95.479483 
1761.000000	95.277156 
1760.000000	95.044222 
1759.000000	94.748332 
1758.000000	94.367828 
1757.000000	93.894112 
1756.000000	93.346637 
1755.000000	92.776172 
1754.000000	92.201158 
1753.000000	91.559748 
1752.000000	90.743816 
1751.000000	89.711067 
1750.000000	88.567374 
1749.000000	87.427653 
1748.000000	86.319808 
1747.000000	85.266356 
1746.000000	84.291134 
1745.000000	83.357552 
1744.000000	82.416434 
1743.000000	81.503785 
1742.000000	80.684622 
1741.000000	79.919924 
1740.000000	79.125182 
1739.000000	78.371168 
1738.000000	77.831109 
1737.000000	77.521334 
1736.000000	77.287139 
1735.000000	76.934077 
1734.000000	76.408005 
1733.000000	75.960239 
1732.000000	75.761942 
1731.000000	75.710836 
1730.000000	75.702464 
1729.000000	75.730982 
1728.000000	75.825246 
1727.000000	75.978934 
1726.000000	76.167509 
1725.000000	76.384330 
1724.000000	76.634457 
1723.000000	76.920510 
1722.000000	77.233239 
1721.000000	77.560029 
1720.000000	77.892470 
1719.000000	78.244680 
1718.000000	78.662895 
1717.000000	79.137831 
1716.000000	79.616076 
1715.000000	80.086158 
1714.000000	80.544270 
1713.000000	80.994380 
1712.000000	81.460338 
1711.000000	81.955656 
1710.000000	82.468642 
1709.000000	82.979099 
1708.000000	83.482393 
1707.000000	84.001751 
1706.000000	84.565342 
1705.000000	85.141080 
1704.000000	85.668352 
1703.000000	86.146762 
1702.000000	86.618336 
1701.000000	87.127552 
1700.000000	87.659530 
1699.000000	88.105733 
1698.000000	88.409348 
1697.000000	88.619334 
1696.000000	88.820284 
1695.000000	89.072170 
1694.000000	89.312687 
1693.000000	89.458830 
1692.000000	89.520812 
1691.000000	89.556900 
1690.000000	89.595321 
1689.000000	89.607506 
1688.000000	89.568489 
1687.000000	89.490092 
1686.000000	89.352980 
1685.000000	89.049703 
1684.000000	88.561887 
1683.000000	88.150222 
1682.000000	87.869251 
1681.000000	87.534847 
1680.000000	87.096426 
1679.000000	86.653250 
1678.000000	86.266290 
1677.000000	85.840287 
1676.000000	85.227485 
1675.000000	84.461632 
1674.000000	83.774133 
1673.000000	83.242824 
1672.000000	82.741693 
1671.000000	82.146983 
1670.000000	81.398449 
1669.000000	80.559567 
1668.000000	79.811126 
1667.000000	79.260707 
1666.000000	78.863181 
1665.000000	78.481608 
1664.000000	77.983718 
1663.000000	77.360124 
1662.000000	76.747705 
1661.000000	76.255298 
1660.000000	75.858713 
1659.000000	75.521216 
1658.000000	75.254095 
1657.000000	75.065327 
1656.000000	74.924337 
1655.000000	74.734303 
1654.000000	74.280265 
1653.000000	73.455007 
1652.000000	72.863909 
1651.000000	72.742804 
1650.000000	72.803289 
1649.000000	72.814021 
1648.000000	72.642532 
1647.000000	72.284094 
1646.000000	71.945346 
1645.000000	71.786604 
1644.000000	71.746744 
1643.000000	71.762427 
1642.000000	71.815946 
1641.000000	71.900205 
1640.000000	72.021626 
1639.000000	72.202868 
1638.000000	72.451811 
1637.000000	72.746102 
1636.000000	73.083896 
1635.000000	73.513050 
1634.000000	74.044268 
1633.000000	74.606016 
1632.000000	75.174296 
1631.000000	75.766919 
1630.000000	76.397958 
1629.000000	77.066003 
1628.000000	77.756958 
1627.000000	78.438145 
1626.000000	79.078088 
1625.000000	79.680414 
1624.000000	80.276784 
1623.000000	80.876564 
1622.000000	81.430442 
1621.000000	81.905492 
1620.000000	82.317115 
1619.000000	82.694297 
1618.000000	83.069159 
1617.000000	83.467957 
1616.000000	83.877306 
1615.000000	84.246919 
1614.000000	84.556736 
1613.000000	84.829907 
1612.000000	85.096949 
1611.000000	85.367817 
1610.000000	85.629298 
1609.000000	85.877867 
1608.000000	86.124841 
1607.000000	86.368342 
1606.000000	86.593277 
1605.000000	86.802942 
1604.000000	87.009435 
1603.000000	87.211719 
1602.000000	87.399882 
1601.000000	87.574497 
1600.000000	87.744554 
1599.000000	87.909383 
1598.000000	88.065101 
1597.000000	88.218274 
1596.000000	88.380072 
1595.000000	88.550151 
1594.000000	88.715103 
1593.000000	88.870240 
1592.000000	89.021982 
1591.000000	89.169414 
1590.000000	89.302708 
1589.000000	89.423222 
1588.000000	89.542227 
1587.000000	89.659978 
1586.000000	89.766121 
1585.000000	89.862399 
1584.000000	89.961896 
1583.000000	90.060246 
1582.000000	90.146078 
1581.000000	90.223867 
1580.000000	90.304078 
1579.000000	90.377451 
1578.000000	90.434014 
1577.000000	90.496270 
1576.000000	90.601036 
1575.000000	90.730500 
1574.000000	90.834924 
1573.000000	90.906192 
1572.000000	90.960308 
1571.000000	91.016844 
1570.000000	91.088067 
1569.000000	91.173991 
1568.000000	91.259189 
1567.000000	91.319849 
1566.000000	91.359432 
1565.000000	91.403028 
1564.000000	91.470596 
1563.000000	91.544973 
1562.000000	91.598285 
1561.000000	91.615299 
1560.000000	91.628245 
1559.000000	91.775518 
1558.000000	91.959897 
1557.000000	92.074897 
1556.000000	92.120638 
1555.000000	92.133643 
1554.000000	92.142340 
1553.000000	92.154068 
1552.000000	92.160367 
1551.000000	92.169187 
1550.000000	92.203398 
1549.000000	92.268667 
1548.000000	92.349321 
1547.000000	92.425226 
1546.000000	92.498458 
1545.000000	92.585929 
1544.000000	92.686112 
1543.000000	92.773120 
1542.000000	92.831840 
1541.000000	92.855025 
1540.000000	92.853369 
1539.000000	92.867928 
1538.000000	92.918295 
1537.000000	92.963785 
1536.000000	92.992596 
1535.000000	93.014306 
1534.000000	93.050322 
1533.000000	93.103089 
1532.000000	93.147175 
1531.000000	93.178968 
1530.000000	93.205511 
1529.000000	93.233068 
1528.000000	93.275076 
1527.000000	93.345459 
1526.000000	93.434285 
1525.000000	93.506022 
1524.000000	93.540009 
1523.000000	93.557198 
1522.000000	93.591817 
1521.000000	93.627012 
1520.000000	93.635458 
1519.000000	93.623115 
1518.000000	93.607990 
1517.000000	93.612492 
1516.000000	93.639686 
1515.000000	93.677004 
1514.000000	93.708458 
1513.000000	93.727315 
1512.000000	93.736522 
1511.000000	93.746564 
1510.000000	93.758904 
1509.000000	93.772678 
1508.000000	93.793872 
1507.000000	93.808358 
1506.000000	93.813553 
1505.000000	93.848774 
1504.000000	93.848760 
1503.000000	93.824564 
1502.000000	93.803362 
1501.000000	93.792800 
1500.000000	93.787331 
1499.000000	93.784017 
1498.000000	93.793435 
1497.000000	93.804317 
1496.000000	93.785282 
1495.000000	93.748096 
1494.000000	93.715280 
1493.000000	93.684036 
1492.000000	93.648424 
1491.000000	93.616469 
1490.000000	93.589556 
1489.000000	93.535908 
1488.000000	93.457881 
1487.000000	93.398030 
1486.000000	93.352405 
1485.000000	93.298296 
1484.000000	93.237305 
1483.000000	93.174037 
1482.000000	93.111526 
1481.000000	93.043578 
1480.000000	92.968886 
1479.000000	92.888249 
1478.000000	92.793799 
1477.000000	92.680209 
1476.000000	92.565097 
1475.000000	92.473923 
1474.000000	92.383910 
1473.000000	92.230064 
1472.000000	91.994057 
1471.000000	91.764144 
1470.000000	91.579362 
1469.000000	91.412955 
1468.000000	91.252801 
1467.000000	91.103460 
1466.000000	90.954517 
1465.000000	90.791136 
1464.000000	90.628678 
1463.000000	90.500960 
1462.000000	90.413444 
1461.000000	90.348560 
1460.000000	90.298803 
1459.000000	90.263797 
1458.000000	90.240014 
1457.000000	90.185031 
1456.000000	90.083580 
1455.000000	89.986459 
1454.000000	89.908477 
1453.000000	89.843339 
1452.000000	89.794098 
1451.000000	89.768188 
1450.000000	89.757559 
1449.000000	89.742055 
1448.000000	89.713283 
1447.000000	89.682393 
1446.000000	89.653474 
1445.000000	89.620496 
1444.000000	89.577476 
1443.000000	89.528031 
1442.000000	89.477258 
1441.000000	89.433973 
1440.000000	89.410180 
1439.000000	89.404175 
1438.000000	89.394431 
1437.000000	89.351350 
1436.000000	89.280400 
1435.000000	89.218496 
1434.000000	89.182736 
1433.000000	89.164979 
1432.000000	89.161799 
1431.000000	89.174896 
1430.000000	89.208663 
1429.000000	89.263653 
1428.000000	89.333204 
1427.000000	89.405909 
1426.000000	89.472470 
1425.000000	89.544629 
1424.000000	89.632968 
1423.000000	89.727006 
1422.000000	89.816428 
1421.000000	89.900219 
1420.000000	89.981314 
1419.000000	90.061693 
1418.000000	90.141314 
1417.000000	90.216319 
1416.000000	90.284780 
1415.000000	90.354266 
1414.000000	90.438504 
1413.000000	90.545523 
1412.000000	90.664762 
1411.000000	90.773132 
1410.000000	90.862950 
1409.000000	90.941180 
1408.000000	91.007030 
1407.000000	91.054087 
1406.000000	91.083705 
1405.000000	91.108527 
1404.000000	91.126102 
1403.000000	91.125239 
1402.000000	91.110335 
1401.000000	91.089897 
1400.000000	91.063955 
1399.000000	91.024234 
1398.000000	90.974134 
1397.000000	90.923330 
1396.000000	90.861013 
1395.000000	90.765333 
1394.000000	90.645422 
1393.000000	90.532124 
1392.000000	90.420101 
1391.000000	90.290153 
1390.000000	90.133788 
1389.000000	89.938789 
1388.000000	89.675797 
1387.000000	89.327648 
1386.000000	88.929605 
1385.000000	88.527098 
1384.000000	88.117807 
1383.000000	87.681977 
1382.000000	87.222961 
1381.000000	86.754443 
1380.000000	86.283231 
1379.000000	85.821474 
1378.000000	85.397535 
1377.000000	85.033159 
1376.000000	84.728210 
1375.000000	84.484630 
1374.000000	84.329050 
1373.000000	84.293857 
1372.000000	84.378568 
1371.000000	84.556971 
1370.000000	84.804096 
1369.000000	85.107119 
1368.000000	85.450773 
1367.000000	85.811461 
1366.000000	86.167956 
1365.000000	86.516899 
1364.000000	86.879287 
1363.000000	87.274209 
1362.000000	87.680469 
1361.000000	88.065671 
1360.000000	88.430595 
1359.000000	88.790775 
1358.000000	89.148596 
1357.000000	89.498111 
1356.000000	89.837233 
1355.000000	90.163611 
1354.000000	90.466208 
1353.000000	90.734768 
1352.000000	90.974639 
1351.000000	91.198526 
1350.000000	91.403006 
1349.000000	91.582078 
1348.000000	91.739796 
1347.000000	91.883959 
1346.000000	92.013575 
1345.000000	92.125920 
1344.000000	92.224495 
1343.000000	92.313731 
1342.000000	92.393115 
1341.000000	92.462828 
1340.000000	92.520682 
1339.000000	92.552631 
1338.000000	92.549569 
1337.000000	92.522685 
1336.000000	92.485743 
1335.000000	92.439016 
1334.000000	92.372253 
1333.000000	92.279770 
1332.000000	92.167200 
1331.000000	92.040806 
1330.000000	91.897904 
1329.000000	91.735757 
1328.000000	91.560461 
1327.000000	91.380606 
1326.000000	91.198725 
1325.000000	91.021305 
1324.000000	90.862416 
1323.000000	90.735537 
1322.000000	90.646289 
1321.000000	90.596496 
1320.000000	90.588345 
1319.000000	90.618222 
1318.000000	90.673473 
1317.000000	90.742464 
1316.000000	90.822932 
1315.000000	90.915309 
1314.000000	91.014944 
1313.000000	91.113681 
1312.000000	91.204811 
1311.000000	91.282263 
1310.000000	91.339041 
1309.000000	91.371507 
1308.000000	91.381220 
1307.000000	91.369331 
1306.000000	91.330989 
1305.000000	91.262573 
1304.000000	91.163641 
1303.000000	91.031880 
1302.000000	90.858743 
1301.000000	90.634230 
1300.000000	90.351862 
1299.000000	90.005708 
1298.000000	89.584672 
1297.000000	89.075099 
1296.000000	88.471317 
1295.000000	87.778410 
1294.000000	87.004384 
1293.000000	86.155552 
1292.000000	85.243849 
1291.000000	84.289741 
1290.000000	83.307580 
1289.000000	82.294936 
1288.000000	81.245808 
1287.000000	80.164216 
1286.000000	79.055366 
1285.000000	77.919249 
1284.000000	76.769646 
1283.000000	75.647709 
1282.000000	74.602431 
1281.000000	73.673015 
1280.000000	72.904368 
1279.000000	72.355060 
1278.000000	72.070691 
1277.000000	72.064977 
1276.000000	72.332817 
1275.000000	72.849646 
1274.000000	73.548645 
1273.000000	74.329022 
1272.000000	75.098574 
1271.000000	75.793850 
1270.000000	76.370665 
1269.000000	76.804747 
1268.000000	77.103034 
1267.000000	77.292805 
1266.000000	77.395637 
1265.000000	77.422085 
1264.000000	77.388013 
1263.000000	77.315870 
1262.000000	77.215996 
1261.000000	77.084445 
1260.000000	76.924456 
1259.000000	76.751536 
1258.000000	76.573691 
1257.000000	76.384106 
1256.000000	76.179606 
1255.000000	75.967795 
1254.000000	75.750605 
1253.000000	75.519122 
1252.000000	75.272282 
1251.000000	75.022554 
1250.000000	74.776765 
1249.000000	74.529379 
1248.000000	74.281036 
1247.000000	74.044089 
1246.000000	73.823659 
1245.000000	73.612413 
1244.000000	73.411550 
1243.000000	73.236234 
1242.000000	73.092798 
1241.000000	72.972361 
1240.000000	72.874133 
1239.000000	72.811708 
1238.000000	72.788868 
1237.000000	72.792911 
1236.000000	72.819874 
1235.000000	72.882606 
1234.000000	72.986590 
1233.000000	73.121332 
1232.000000	73.282202 
1231.000000	73.477194 
1230.000000	73.706143 
1229.000000	73.956238 
1228.000000	74.223570 
1227.000000	74.516807 
1226.000000	74.835440 
1225.000000	75.166077 
1224.000000	75.502748 
1223.000000	75.849058 
1222.000000	76.198745 
1221.000000	76.536290 
1220.000000	76.858482 
1219.000000	77.174381 
1218.000000	77.482856 
1217.000000	77.769945 
1216.000000	78.029922 
1215.000000	78.269932 
1214.000000	78.492434 
1213.000000	78.691004 
1212.000000	78.864960 
1211.000000	79.022090 
1210.000000	79.164864 
1209.000000	79.289096 
1208.000000	79.397298 
1207.000000	79.498512 
1206.000000	79.594110 
1205.000000	79.677998 
1204.000000	79.751037 
1203.000000	79.820087 
1202.000000	79.883149 
1201.000000	79.931242 
1200.000000	79.965183 
1199.000000	79.994782 
1198.000000	80.021249 
1197.000000	80.035270 
1196.000000	80.033605 
1195.000000	80.022642 
1194.000000	80.004124 
1193.000000	79.972498 
1192.000000	79.928301 
1191.000000	79.879688 
1190.000000	79.828429 
1189.000000	79.767994 
1188.000000	79.697489 
1187.000000	79.623827 
1186.000000	79.548625 
1185.000000	79.466714 
1184.000000	79.379181 
1183.000000	79.293622 
1182.000000	79.209812 
1181.000000	79.119801 
1180.000000	79.024506 
1179.000000	78.934092 
1178.000000	78.849714 
1177.000000	78.762171 
1176.000000	78.670315 
1175.000000	78.583286 
1174.000000	78.502505 
1173.000000	78.419106 
1172.000000	78.331144 
1171.000000	78.245953 
1170.000000	78.163236 
1169.000000	78.073486 
1168.000000	77.976105 
1167.000000	77.881398 
1166.000000	77.791592 
1165.000000	77.698051 
1164.000000	77.600829 
1163.000000	77.512350 
1162.000000	77.437676 
1161.000000	77.370026 
1160.000000	77.309596 
1159.000000	77.266757 
1158.000000	77.242443 
1157.000000	77.224590 
1156.000000	77.207567 
1155.000000	77.195858 
1154.000000	77.185892 
1153.000000	77.164732 
1152.000000	77.130215 
1151.000000	77.092327 
1150.000000	77.051346 
1149.000000	76.995155 
1148.000000	76.921593 
1147.000000	76.842223 
1146.000000	76.760096 
1145.000000	76.664980 
1144.000000	76.555142 
1143.000000	76.442486 
1142.000000	76.331165 
1141.000000	76.212032 
1140.000000	76.083309 
1139.000000	75.955046 
1138.000000	75.828156 
1137.000000	75.690954 
1136.000000	75.541598 
1135.000000	75.391953 
1134.000000	75.244173 
1133.000000	75.086207 
1132.000000	74.915933 
1131.000000	74.746423 
1130.000000	74.581307 
1129.000000	74.408373 
1128.000000	74.224056 
1127.000000	74.040038 
1126.000000	73.858221 
1125.000000	73.663873 
1124.000000	73.452138 
1123.000000	73.237190 
1122.000000	73.027495 
1121.000000	72.817230 
1120.000000	72.609848 
1119.000000	72.423528 
1118.000000	72.264650 
1117.000000	72.122122 
1116.000000	71.995379 
1115.000000	71.899673 
1114.000000	71.835733 
1113.000000	71.783047 
1112.000000	71.731023 
1111.000000	71.687290 
1110.000000	71.648977 
1109.000000	71.598436 
1108.000000	71.534377 
1107.000000	71.476329 
1106.000000	71.428680 
1105.000000	71.372168 
1104.000000	71.299525 
1103.000000	71.226934 
1102.000000	71.161076 
1101.000000	71.087475 
1100.000000	70.998329 
1099.000000	70.906455 
1098.000000	70.813953 
1097.000000	70.704444 
1096.000000	70.574592 
1095.000000	70.441844 
1094.000000	70.310777 
1093.000000	70.164127 
1092.000000	69.997470 
1091.000000	69.829707 
1090.000000	69.668683 
1089.000000	69.499381 
1088.000000	69.316684 
1087.000000	69.136688 
1086.000000	68.965217 
1085.000000	68.789054 
1084.000000	68.609313 
1083.000000	68.448336 
1082.000000	68.312458 
1081.000000	68.183763 
1080.000000	68.058907 
1079.000000	67.957539 
1078.000000	67.881792 
1077.000000	67.807688 
1076.000000	67.728253 
1075.000000	67.665028 
1074.000000	67.625441 
1073.000000	67.588628 
1072.000000	67.545017 
1071.000000	67.509706 
1070.000000	67.485896 
1069.000000	67.455355 
1068.000000	67.416009 
1067.000000	67.388681 
1066.000000	67.375952 
1065.000000	67.354486 
1064.000000	67.318618 
1063.000000	67.291006 
1062.000000	67.279540 
1061.000000	67.262944 
1060.000000	67.230234 
1059.000000	67.195006 
1058.000000	67.157967 
1057.000000	67.093357 
1056.000000	66.985510 
1055.000000	66.842177 
1054.000000	66.659659 
1053.000000	66.412320 
1052.000000	66.092955 
1051.000000	65.727763 
1050.000000	65.335008 
1049.000000	64.908715 
1048.000000	64.459088 
1047.000000	64.022751 
1046.000000	63.615954 
1045.000000	63.220982 
1044.000000	62.831232 
1043.000000	62.466007 
1042.000000	62.129053 
1041.000000	61.796035 
1040.000000	61.457649 
1039.000000	61.132514 
1038.000000	60.823007 
1037.000000	60.501532 
1036.000000	60.155659 
1035.000000	59.803748 
1034.000000	59.450450 
1033.000000	59.069465 
1032.000000	58.647186 
1031.000000	58.200441 
1030.000000	57.733320 
1029.000000	57.220314 
1028.000000	56.650937 
1027.000000	56.046771 
1026.000000	55.415316 
1025.000000	54.731750 
1024.000000	53.986836 
1023.000000	53.209337 
1022.000000	52.422253 
1021.000000	51.622152 
1020.000000	50.822753 
1019.000000	50.071943 
1018.000000	49.401202 
1017.000000	48.804987 
1016.000000	48.290992 
1015.000000	47.897688 
1014.000000	47.638321 
1013.000000	47.481493 
1012.000000	47.409726 
1011.000000	47.443386 
1010.000000	47.587554 
1009.000000	47.811017 
1008.000000	48.097866 
1007.000000	48.465106 
1006.000000	48.909828 
1005.000000	49.392150 
1004.000000	49.890001 
1003.000000	50.418509 
1002.000000	50.978890 
1001.000000	51.540620 
1000.000000	52.090495 
999.000000	 52.648801 
998.000000	 53.221460 
997.000000	 53.783945 
996.000000	 54.327101 
995.000000	 54.873375 
994.000000	 55.433918 
993.000000	 55.992428 
992.000000	 56.544057 
991.000000	 57.107942 
990.000000	 57.688813 
989.000000	 58.267563 
988.000000	 58.840436 
987.000000	 59.426652 
986.000000	 60.028003 
985.000000	 60.621135 
984.000000	 61.198422 
983.000000	 61.777413 
982.000000	 62.361803 
981.000000	 62.931012 
980.000000	 63.477002 
979.000000	 64.015107 
978.000000	 64.549646 
977.000000	 65.063751 
976.000000	 65.552124 
975.000000	 66.030534 
974.000000	 66.504949 
973.000000	 66.963176 
972.000000	 67.404183 
971.000000	 67.844409 
970.000000	 68.287785 
969.000000	 68.719105 
968.000000	 69.133757 
967.000000	 69.545522 
966.000000	 69.958259 
965.000000	 70.357264 
964.000000	 70.735368 
963.000000	 71.101280 
962.000000	 71.455848 
961.000000	 71.785501 
960.000000	 72.084909 
959.000000	 72.361549 
958.000000	 72.612625 
957.000000	 72.821407 
956.000000	 72.982647 
955.000000	 73.109953 
954.000000	 73.213257 
953.000000	 73.290919 
952.000000	 73.349485 
951.000000	 73.409021 
950.000000	 73.481960 
949.000000	 73.567541 
948.000000	 73.672285 
947.000000	 73.813042 
946.000000	 73.993208 
945.000000	 74.197994 
944.000000	 74.419561 
943.000000	 74.665796 
942.000000	 74.939239 
941.000000	 75.228873 
940.000000	 75.528213 
939.000000	 75.841319 
938.000000	 76.165909 
937.000000	 76.489948 
936.000000	 76.809043 
935.000000	 77.128249 
934.000000	 77.443532 
933.000000	 77.740478 
932.000000	 78.014629 
931.000000	 78.274956 
930.000000	 78.523914 
929.000000	 78.751299 
928.000000	 78.951084 
927.000000	 79.127875 
926.000000	 79.283593 
925.000000	 79.413762 
924.000000	 79.520594 
923.000000	 79.614514 
922.000000	 79.699238 
921.000000	 79.769890 
920.000000	 79.828676 
919.000000	 79.887291 
918.000000	 79.950836 
917.000000	 80.014701 
916.000000	 80.080682 
915.000000	 80.160466 
914.000000	 80.258882 
913.000000	 80.368504 
912.000000	 80.484883 
911.000000	 80.612192 
910.000000	 80.750099 
909.000000	 80.890248 
908.000000	 81.029605 
907.000000	 81.172377 
906.000000	 81.315158 
905.000000	 81.444991 
904.000000	 81.556148 
903.000000	 81.655896 
902.000000	 81.751387 
901.000000	 81.843969 
900.000000	 81.937540 
899.000000	 82.037550 
898.000000	 82.137342 
897.000000	 82.220963 
896.000000	 82.282294 
895.000000	 82.328651 
894.000000	 82.363508 
893.000000	 82.380244 
892.000000	 82.376055 
891.000000	 82.357302 
890.000000	 82.326507 
889.000000	 82.277755 
888.000000	 82.210343 
887.000000	 82.134598 
886.000000	 82.058970 
885.000000	 81.983051 
884.000000	 81.907322 
883.000000	 81.835903 
882.000000	 81.764175 
881.000000	 81.677425 
880.000000	 81.568391 
879.000000	 81.444151 
878.000000	 81.311306 
877.000000	 81.168041 
876.000000	 81.015177 
875.000000	 80.859238 
874.000000	 80.698690 
873.000000	 80.523020 
872.000000	 80.331355 
871.000000	 80.136566 
870.000000	 79.945969 
869.000000	 79.753967 
868.000000	 79.557976 
867.000000	 79.364099 
866.000000	 79.171947 
865.000000	 78.971081 
864.000000	 78.757750 
863.000000	 78.538431 
862.000000	 78.312505 
861.000000	 78.069513 
860.000000	 77.808152 
859.000000	 77.538542 
858.000000	 77.260124 
857.000000	 76.957894 
856.000000	 76.627543 
855.000000	 76.283606 
854.000000	 75.935160 
853.000000	 75.575037 
852.000000	 75.201895 
851.000000	 74.830340 
850.000000	 74.469362 
849.000000	 74.113346 
848.000000	 73.763896 
847.000000	 73.436095 
846.000000	 73.133418 
845.000000	 72.843096 
844.000000	 72.567382 
843.000000	 72.331332 
842.000000	 72.147176 
841.000000	 71.999370 
840.000000	 71.878456 
839.000000	 71.801100 
838.000000	 71.782198 
837.000000	 71.814319 
836.000000	 71.888387 
835.000000	 72.007825 
834.000000	 72.169892 
833.000000	 72.359992 
832.000000	 72.576292 
831.000000	 72.833401 
830.000000	 73.131433 
829.000000	 73.449060 
828.000000	 73.777259 
827.000000	 74.129668 
826.000000	 74.508540 
825.000000	 74.894077 
824.000000	 75.280221 
823.000000	 75.685070 
822.000000	 76.112985 
821.000000	 76.541436 
820.000000	 76.954048 
819.000000	 77.354076 
818.000000	 77.741448 
817.000000	 78.105631 
816.000000	 78.444604 
815.000000	 78.765687 
814.000000	 79.064181 
813.000000	 79.324425 
812.000000	 79.545619 
811.000000	 79.744385 
810.000000	 79.928331 
809.000000	 80.087867 
808.000000	 80.215817 
807.000000	 80.312808 
806.000000	 80.371759 
805.000000	 80.382286 
804.000000	 80.355465 
803.000000	 80.320639 
802.000000	 80.292232 
801.000000	 80.261355 
800.000000	 80.223954 
799.000000	 80.191710 
798.000000	 80.168702 
797.000000	 80.143912 
796.000000	 80.116386 
795.000000	 80.102990 
794.000000	 80.111085 
793.000000	 80.126802 
792.000000	 80.140275 
791.000000	 80.159372 
790.000000	 80.189144 
789.000000	 80.220022 
788.000000	 80.245190 
787.000000	 80.268096 
786.000000	 80.284492 
785.000000	 80.279005 
784.000000	 80.247852 
783.000000	 80.204265 
782.000000	 80.155636 
781.000000	 80.097701 
780.000000	 80.037131 
779.000000	 79.993791 
778.000000	 79.970640 
777.000000	 79.945802 
776.000000	 79.904595 
775.000000	 79.855708 
774.000000	 79.806752 
773.000000	 79.748601 
772.000000	 79.674785 
771.000000	 79.592216 
770.000000	 79.501211 
769.000000	 79.388062 
768.000000	 79.249085 
767.000000	 79.099147 
766.000000	 78.945058 
765.000000	 78.773503 
764.000000	 78.576031 
763.000000	 78.361401 
762.000000	 78.131584 
761.000000	 77.871432 
760.000000	 77.576483 
759.000000	 77.267305 
758.000000	 76.962630 
757.000000	 76.661421 
756.000000	 76.364261 
755.000000	 76.086348 
754.000000	 75.833689 
753.000000	 75.590310 
752.000000	 75.342553 
751.000000	 75.092521 
750.000000	 74.838832 
749.000000	 74.574000 
748.000000	 74.311846 
747.000000	 74.086177 
746.000000	 73.908173 
745.000000	 73.754203 
744.000000	 73.607210 
743.000000	 73.476536 
742.000000	 73.364239 
741.000000	 73.248301 
740.000000	 73.115533 
739.000000	 72.975954 
738.000000	 72.829434 
737.000000	 72.655426 
736.000000	 72.451124 
735.000000	 72.241592 
734.000000	 72.035773 
733.000000	 71.811506 
732.000000	 71.562371 
731.000000	 71.319015 
730.000000	 71.102918 
729.000000	 70.900147 
728.000000	 70.705201 
727.000000	 70.546972 
726.000000	 70.437635 
725.000000	 70.331259 
724.000000	 70.164853 
723.000000	 69.913368 
722.000000	 69.588114 
721.000000	 69.221506 
720.000000	 68.873251 
719.000000	 68.601453 
718.000000	 68.400287 
717.000000	 68.210872 
716.000000	 68.002087 
715.000000	 67.794853 
714.000000	 67.602324 
713.000000	 67.399826 
712.000000	 67.175465 
711.000000	 66.955749 
710.000000	 66.754451 
709.000000	 66.548408 
708.000000	 66.328836 
707.000000	 66.122622 
706.000000	 65.936089 
705.000000	 65.733168 
704.000000	 65.500299 
703.000000	 65.275103 
702.000000	 65.079678 
701.000000	 64.884665 
700.000000	 64.672199 
699.000000	 64.472456 
698.000000	 64.300321 
697.000000	 64.118881 
696.000000	 63.906371 
695.000000	 63.695429 
694.000000	 63.506833 
693.000000	 63.308671 
692.000000	 63.081410 
691.000000	 62.858533 
690.000000	 62.657370 
689.000000	 62.437155 
688.000000	 62.176532 
687.000000	 61.919714 
686.000000	 61.691238 
685.000000	 61.451853 
684.000000	 61.187805 
683.000000	 60.946354 
682.000000	 60.737904 
681.000000	 60.500288 
680.000000	 60.206305 
679.000000	 59.907346 
678.000000	 59.621472 
677.000000	 59.283772 
676.000000	 58.864399 
675.000000	 58.416833 
674.000000	 57.964003 
673.000000	 57.468575 
672.000000	 56.958138 
671.000000	 56.531343 
670.000000	 56.184587 
669.000000	 55.705141 
668.000000	 54.992977 
667.000000	 54.503338 
666.000000	 54.428660 
665.000000	 54.539946 
664.000000	 54.685696 
663.000000	 54.852662 
662.000000	 55.038391 
661.000000	 55.184069 
660.000000	 55.261090 
659.000000	 55.323182 
658.000000	 55.401609 
657.000000	 55.442623 
656.000000	 55.423024 
655.000000	 55.410655 
654.000000	 55.436873 
653.000000	 55.426567 
652.000000	 55.340627 
651.000000	 55.261434 
650.000000	 55.247258 
649.000000	 55.225836 
648.000000	 55.138991 
647.000000	 55.053533 
646.000000	 55.020065 
645.000000	 54.971512 
644.000000	 54.866765 
643.000000	 54.780397 
642.000000	 54.750524 
641.000000	 54.689123 
640.000000	 54.557582 
639.000000	 54.464927 
638.000000	 54.462432 
637.000000	 54.418475 
636.000000	 54.250768 
635.000000	 54.083989 
634.000000	 54.022298 
633.000000	 53.969623 
632.000000	 53.846403 
631.000000	 53.748068 
630.000000	 53.732676 
629.000000	 53.676819 
628.000000	 53.510823 
627.000000	 53.372104 
626.000000	 53.349989 
625.000000	 53.298762 
624.000000	 53.126553 
623.000000	 53.005980 
622.000000	 53.046601 
621.000000	 53.048165 
620.000000	 52.868240 
619.000000	 52.698661 
618.000000	 52.690001 
617.000000	 52.650980 
616.000000	 52.469522 
615.000000	 52.378464 
614.000000	 52.479236 
613.000000	 52.501815 
612.000000	 52.315264 
611.000000	 52.177407 
610.000000	 52.233766 
609.000000	 52.237908 
608.000000	 52.053314 
607.000000	 51.915717 
606.000000	 51.938647 
605.000000	 51.856879 
604.000000	 51.561126 
603.000000	 51.352466 
602.000000	 51.399549 
601.000000	 51.437903 
600.000000	 51.289569 
599.000000	 51.179513 
598.000000	 51.266411 
597.000000	 51.321689 
596.000000	 51.201064 
595.000000	 51.152927 
594.000000	 51.332762 
593.000000	 51.460800 
592.000000	 51.346360 
591.000000	 51.263966 
590.000000	 51.416101 
589.000000	 51.529955 
588.000000	 51.425348 
587.000000	 51.384556 
586.000000	 51.562391 
585.000000	 51.591241 
584.000000	 51.289810 
583.000000	 51.113174 
582.000000	 51.364821 
581.000000	 51.581857 
580.000000	 51.416710 
579.000000	 51.334894 
578.000000	 51.696377 
577.000000	 51.985035 
576.000000	 51.853491 
575.000000	 51.874179 
574.000000	 52.375749 
573.000000	 52.635348 
572.000000	 52.212459 
571.000000	 51.756448 
570.000000	 51.809122 
569.000000	 51.831003 
568.000000	 51.457720 
567.000000	 51.337758 
566.000000	 51.795390 
565.000000	 52.033237 
564.000000	 51.697140 
563.000000	 51.608903 
562.000000	 52.215928 
561.000000	 52.656998 
560.000000	 52.402318 
559.000000	 52.195706 
558.000000	 52.593584 
557.000000	 52.890411 
556.000000	 52.609674 
555.000000	 52.469337 
554.000000	 52.905535 
553.000000	 53.008204 
552.000000	 52.303965 
551.000000	 51.819945 
550.000000	 52.317905 

