PE IR                   SPECTRUM    ASCII       PEDS        1.60        
  -1
FR220768.ASC
22/05/31
15:13:06.00
22/05/31
15:13:06.00
Administrator
Material branco  removido com auxilio de um estilete na superficie da Amostra denominada A 2 - Porta de passageiros - sem nenhum tratamento - IR/UATR 80N - Vitor
550.000000
20









FRONTIER FT-IR/NIR,CPU32 MAIN 00.09.1072 09-JANUARY-2014 12:55:01
MIR TGS
MIR
OPTKBR
100262
0.200000

4.000000
FORTE
RAZ„O
ESPECTRO
MAGNITUDE
UNIVERSAL ATR
DUPLO

COMBINADO


0


#HDR
-1
-1
#GR
CM-1
%T
0.00002384185791015625
0.0
4000.000000
-1.000000
3451
8
98.190944
17.763881
#DATA
4000.000000	95.650358 
3999.000000	95.652366 
3998.000000	95.655309 
3997.000000	95.658674 
3996.000000	95.662345 
3995.000000	95.667001 
3994.000000	95.672744 
3993.000000	95.678504 
3992.000000	95.682908 
3991.000000	95.684726 
3990.000000	95.683698 
3989.000000	95.681304 
3988.000000	95.679530 
3987.000000	95.679978 
3986.000000	95.682436 
3985.000000	95.684906 
3984.000000	95.685480 
3983.000000	95.683535 
3982.000000	95.680881 
3981.000000	95.680244 
3980.000000	95.683308 
3979.000000	95.689822 
3978.000000	95.697734 
3977.000000	95.704308 
3976.000000	95.707514 
3975.000000	95.707266 
3974.000000	95.705398 
3973.000000	95.704277 
3972.000000	95.705085 
3971.000000	95.707435 
3970.000000	95.709918 
3969.000000	95.711594 
3968.000000	95.712772 
3967.000000	95.714712 
3966.000000	95.718910 
3965.000000	95.726151 
3964.000000	95.735066 
3963.000000	95.743128 
3962.000000	95.747660 
3961.000000	95.747399 
3960.000000	95.744481 
3959.000000	95.741653 
3958.000000	95.740045 
3957.000000	95.738525 
3956.000000	95.734619 
3955.000000	95.727693 
3954.000000	95.719586 
3953.000000	95.714163 
3952.000000	95.716385 
3951.000000	95.728917 
3950.000000	95.750042 
3949.000000	95.772173 
3948.000000	95.785644 
3947.000000	95.785434 
3946.000000	95.771958 
3945.000000	95.751215 
3944.000000	95.732174 
3943.000000	95.723054 
3942.000000	95.726021 
3941.000000	95.735569 
3940.000000	95.745599 
3939.000000	95.752847 
3938.000000	95.758170 
3937.000000	95.765228 
3936.000000	95.774430 
3935.000000	95.785024 
3934.000000	95.796506 
3933.000000	95.806461 
3932.000000	95.809527 
3931.000000	95.800326 
3930.000000	95.782064 
3929.000000	95.761807 
3928.000000	95.743230 
3927.000000	95.728893 
3926.000000	95.725260 
3925.000000	95.735943 
3924.000000	95.753888 
3923.000000	95.768293 
3922.000000	95.774271 
3921.000000	95.778419 
3920.000000	95.789450 
3919.000000	95.807484 
3918.000000	95.824792 
3917.000000	95.830935 
3916.000000	95.824471 
3915.000000	95.812314 
3914.000000	95.799206 
3913.000000	95.790413 
3912.000000	95.788386 
3911.000000	95.791676 
3910.000000	95.795035 
3909.000000	95.794284 
3908.000000	95.790014 
3907.000000	95.788991 
3906.000000	95.799837 
3905.000000	95.829056 
3904.000000	95.868635 
3903.000000	95.895856 
3902.000000	95.892810 
3901.000000	95.862847 
3900.000000	95.827248 
3899.000000	95.807642 
3898.000000	95.809948 
3897.000000	95.823013 
3896.000000	95.835695 
3895.000000	95.846422 
3894.000000	95.854209 
3893.000000	95.860060 
3892.000000	95.861754 
3891.000000	95.863317 
3890.000000	95.872217 
3889.000000	95.879720 
3888.000000	95.877915 
3887.000000	95.872000 
3886.000000	95.873625 
3885.000000	95.881530 
3884.000000	95.875811 
3883.000000	95.844077 
3882.000000	95.796933 
3881.000000	95.763661 
3880.000000	95.766447 
3879.000000	95.796983 
3878.000000	95.828163 
3877.000000	95.834883 
3876.000000	95.819991 
3875.000000	95.810416 
3874.000000	95.823494 
3873.000000	95.852419 
3872.000000	95.877592 
3871.000000	95.891984 
3870.000000	95.905987 
3869.000000	95.923703 
3868.000000	95.937806 
3867.000000	95.939369 
3866.000000	95.933980 
3865.000000	95.937579 
3864.000000	95.944980 
3863.000000	95.942788 
3862.000000	95.934047 
3861.000000	95.930967 
3860.000000	95.935272 
3859.000000	95.943132 
3858.000000	95.950984 
3857.000000	95.956352 
3856.000000	95.956225 
3855.000000	95.949402 
3854.000000	95.952470 
3853.000000	95.971674 
3852.000000	95.976360 
3851.000000	95.965051 
3850.000000	95.951339 
3849.000000	95.947190 
3848.000000	95.950489 
3847.000000	95.952403 
3846.000000	95.947186 
3845.000000	95.935089 
3844.000000	95.922920 
3843.000000	95.915759 
3842.000000	95.913197 
3841.000000	95.912872 
3840.000000	95.909454 
3839.000000	95.902519 
3838.000000	95.895578 
3837.000000	95.893585 
3836.000000	95.898748 
3835.000000	95.904890 
3834.000000	95.909024 
3833.000000	95.915231 
3832.000000	95.926931 
3831.000000	95.942680 
3830.000000	95.954209 
3829.000000	95.954177 
3828.000000	95.945387 
3827.000000	95.941841 
3826.000000	95.953786 
3825.000000	95.974452 
3824.000000	95.985978 
3823.000000	95.977257 
3822.000000	95.963951 
3821.000000	95.967797 
3820.000000	95.981034 
3819.000000	95.984028 
3818.000000	95.966016 
3817.000000	95.942462 
3816.000000	95.936300 
3815.000000	95.948575 
3814.000000	95.962361 
3813.000000	95.967389 
3812.000000	95.970508 
3811.000000	95.983250 
3810.000000	96.003043 
3809.000000	96.019082 
3808.000000	96.025412 
3807.000000	96.029401 
3806.000000	96.032967 
3805.000000	96.024072 
3804.000000	95.996765 
3803.000000	95.964167 
3802.000000	95.949353 
3801.000000	95.954667 
3800.000000	95.962457 
3799.000000	95.961553 
3798.000000	95.953774 
3797.000000	95.951084 
3796.000000	95.961126 
3795.000000	95.973906 
3794.000000	95.979113 
3793.000000	95.975373 
3792.000000	95.970982 
3791.000000	95.971836 
3790.000000	95.976355 
3789.000000	95.981682 
3788.000000	95.985497 
3787.000000	95.986733 
3786.000000	95.986028 
3785.000000	95.984455 
3784.000000	95.981838 
3783.000000	95.977165 
3782.000000	95.966667 
3781.000000	95.953505 
3780.000000	95.948935 
3779.000000	95.959038 
3778.000000	95.977528 
3777.000000	95.992721 
3776.000000	96.000603 
3775.000000	96.006726 
3774.000000	96.016718 
3773.000000	96.029318 
3772.000000	96.037758 
3771.000000	96.042197 
3770.000000	96.045691 
3769.000000	96.047351 
3768.000000	96.041093 
3767.000000	96.030528 
3766.000000	96.027008 
3765.000000	96.036640 
3764.000000	96.051441 
3763.000000	96.056281 
3762.000000	96.047166 
3761.000000	96.035657 
3760.000000	96.033063 
3759.000000	96.038241 
3758.000000	96.044149 
3757.000000	96.056236 
3756.000000	96.076749 
3755.000000	96.102297 
3754.000000	96.133426 
3753.000000	96.183832 
3752.000000	96.257680 
3751.000000	96.325545 
3750.000000	96.350424 
3749.000000	96.338095 
3748.000000	96.308133 
3747.000000	96.259533 
3746.000000	96.193352 
3745.000000	96.134667 
3744.000000	96.121516 
3743.000000	96.147622 
3742.000000	96.174753 
3741.000000	96.190435 
3740.000000	96.204021 
3739.000000	96.217361 
3738.000000	96.217251 
3737.000000	96.198637 
3736.000000	96.174528 
3735.000000	96.153090 
3734.000000	96.145030 
3733.000000	96.161848 
3732.000000	96.191430 
3731.000000	96.214278 
3730.000000	96.222174 
3729.000000	96.218424 
3728.000000	96.213359 
3727.000000	96.213587 
3726.000000	96.215322 
3725.000000	96.205263 
3724.000000	96.178814 
3723.000000	96.146185 
3722.000000	96.121351 
3721.000000	96.109454 
3720.000000	96.106161 
3719.000000	96.109391 
3718.000000	96.121572 
3717.000000	96.142850 
3716.000000	96.165330 
3715.000000	96.180736 
3714.000000	96.188878 
3713.000000	96.196391 
3712.000000	96.199170 
3711.000000	96.184335 
3710.000000	96.156428 
3709.000000	96.138229 
3708.000000	96.136979 
3707.000000	96.143918 
3706.000000	96.151136 
3705.000000	96.150200 
3704.000000	96.135203 
3703.000000	96.111181 
3702.000000	96.091521 
3701.000000	96.086921 
3700.000000	96.094541 
3699.000000	96.106447 
3698.000000	96.118382 
3697.000000	96.130961 
3696.000000	96.142212 
3695.000000	96.146457 
3694.000000	96.139022 
3693.000000	96.119354 
3692.000000	96.093012 
3691.000000	96.070762 
3690.000000	96.061053 
3689.000000	96.058678 
3688.000000	96.054288 
3687.000000	96.042074 
3686.000000	96.014535 
3685.000000	95.963993 
3684.000000	95.876767 
3683.000000	95.701362 
3682.000000	95.303614 
3681.000000	94.479072 
3680.000000	93.066991 
3679.000000	91.077859 
3678.000000	88.735551 
3677.000000	86.528913 
3676.000000	85.303882 
3675.000000	85.736243 
3674.000000	87.379318 
3673.000000	89.280292 
3672.000000	90.998864 
3671.000000	92.481322 
3670.000000	93.657839 
3669.000000	94.411347 
3668.000000	94.793021 
3667.000000	94.960224 
3666.000000	94.986604 
3665.000000	94.846569 
3664.000000	94.491959 
3663.000000	93.949573 
3662.000000	93.383752 
3661.000000	93.037336 
3660.000000	93.077715 
3659.000000	93.483177 
3658.000000	94.082483 
3657.000000	94.660002 
3656.000000	95.063428 
3655.000000	95.269329 
3654.000000	95.344867 
3653.000000	95.361287 
3652.000000	95.370064 
3651.000000	95.407599 
3650.000000	95.471947 
3649.000000	95.494673 
3648.000000	95.445635 
3647.000000	95.382483 
3646.000000	95.351289 
3645.000000	95.350203 
3644.000000	95.364414 
3643.000000	95.385969 
3642.000000	95.407236 
3641.000000	95.420764 
3640.000000	95.423383 
3639.000000	95.420204 
3638.000000	95.418603 
3637.000000	95.419901 
3636.000000	95.421128 
3635.000000	95.422850 
3634.000000	95.433094 
3633.000000	95.456421 
3632.000000	95.486667 
3631.000000	95.510584 
3630.000000	95.523442 
3629.000000	95.524169 
3628.000000	95.509401 
3627.000000	95.489328 
3626.000000	95.468052 
3625.000000	95.450238 
3624.000000	95.441531 
3623.000000	95.439321 
3622.000000	95.431861 
3621.000000	95.410753 
3620.000000	95.379897 
3619.000000	95.353472 
3618.000000	95.342481 
3617.000000	95.347871 
3616.000000	95.363991 
3615.000000	95.383649 
3614.000000	95.402483 
3613.000000	95.419538 
3612.000000	95.436370 
3611.000000	95.450548 
3610.000000	95.451040 
3609.000000	95.428360 
3608.000000	95.385026 
3607.000000	95.338722 
3606.000000	95.309452 
3605.000000	95.301661 
3604.000000	95.305972 
3603.000000	95.311132 
3602.000000	95.311506 
3601.000000	95.306190 
3600.000000	95.297102 
3599.000000	95.286406 
3598.000000	95.274870 
3597.000000	95.261294 
3596.000000	95.248020 
3595.000000	95.237729 
3594.000000	95.233707 
3593.000000	95.238929 
3592.000000	95.251932 
3591.000000	95.264158 
3590.000000	95.267352 
3589.000000	95.259017 
3588.000000	95.240654 
3587.000000	95.212542 
3586.000000	95.186212 
3585.000000	95.177826 
3584.000000	95.183807 
3583.000000	95.191790 
3582.000000	95.194345 
3581.000000	95.187911 
3580.000000	95.174141 
3579.000000	95.157137 
3578.000000	95.141154 
3577.000000	95.129408 
3576.000000	95.124071 
3575.000000	95.125037 
3574.000000	95.128814 
3573.000000	95.131722 
3572.000000	95.131163 
3571.000000	95.125376 
3570.000000	95.114388 
3569.000000	95.105325 
3568.000000	95.103899 
3567.000000	95.094518 
3566.000000	95.061692 
3565.000000	95.026772 
3564.000000	95.013877 
3563.000000	95.019864 
3562.000000	95.029716 
3561.000000	95.033617 
3560.000000	95.029436 
3559.000000	95.021848 
3558.000000	95.015641 
3557.000000	95.012183 
3556.000000	95.010133 
3555.000000	95.007337 
3554.000000	95.000784 
3553.000000	94.989568 
3552.000000	94.977909 
3551.000000	94.972939 
3550.000000	94.978288 
3549.000000	94.991778 
3548.000000	95.007986 
3547.000000	95.019280 
3546.000000	95.014937 
3545.000000	94.990782 
3544.000000	94.958737 
3543.000000	94.934150 
3542.000000	94.921880 
3541.000000	94.918670 
3540.000000	94.918648 
3539.000000	94.917985 
3538.000000	94.914894 
3537.000000	94.908156 
3536.000000	94.898483 
3535.000000	94.888310 
3534.000000	94.881630 
3533.000000	94.880977 
3532.000000	94.886032 
3531.000000	94.893190 
3530.000000	94.899185 
3529.000000	94.903554 
3528.000000	94.908601 
3527.000000	94.915143 
3526.000000	94.920626 
3525.000000	94.920701 
3524.000000	94.911746 
3523.000000	94.893334 
3522.000000	94.869955 
3521.000000	94.849427 
3520.000000	94.836649 
3519.000000	94.830867 
3518.000000	94.829041 
3517.000000	94.828289 
3516.000000	94.827372 
3515.000000	94.825669 
3514.000000	94.823323 
3513.000000	94.821395 
3512.000000	94.821163 
3511.000000	94.821609 
3510.000000	94.820067 
3509.000000	94.814960 
3508.000000	94.808784 
3507.000000	94.805512 
3506.000000	94.806659 
3505.000000	94.812174 
3504.000000	94.819649 
3503.000000	94.821761 
3502.000000	94.813463 
3501.000000	94.798882 
3500.000000	94.785543 
3499.000000	94.776913 
3498.000000	94.771934 
3497.000000	94.768130 
3496.000000	94.764073 
3495.000000	94.759140 
3494.000000	94.753439 
3493.000000	94.748087 
3492.000000	94.744156 
3491.000000	94.741654 
3490.000000	94.740085 
3489.000000	94.738962 
3488.000000	94.737638 
3487.000000	94.734943 
3486.000000	94.729867 
3485.000000	94.723345 
3484.000000	94.718497 
3483.000000	94.717421 
3482.000000	94.718754 
3481.000000	94.718277 
3480.000000	94.713054 
3479.000000	94.703864 
3478.000000	94.693504 
3477.000000	94.684620 
3476.000000	94.678583 
3475.000000	94.674769 
3474.000000	94.671428 
3473.000000	94.668125 
3472.000000	94.666072 
3471.000000	94.666347 
3470.000000	94.668577 
3469.000000	94.671104 
3468.000000	94.672158 
3467.000000	94.671071 
3466.000000	94.667741 
3465.000000	94.662098 
3464.000000	94.654793 
3463.000000	94.647809 
3462.000000	94.643616 
3461.000000	94.642339 
3460.000000	94.640516 
3459.000000	94.633973 
3458.000000	94.622121 
3457.000000	94.608876 
3456.000000	94.599009 
3455.000000	94.593293 
3454.000000	94.589548 
3453.000000	94.586286 
3452.000000	94.584942 
3451.000000	94.586453 
3450.000000	94.588903 
3449.000000	94.589933 
3448.000000	94.589302 
3447.000000	94.588155 
3446.000000	94.587609 
3445.000000	94.588037 
3444.000000	94.588528 
3443.000000	94.587718 
3442.000000	94.585118 
3441.000000	94.582669 
3440.000000	94.583734 
3439.000000	94.589114 
3438.000000	94.595755 
3437.000000	94.600013 
3436.000000	94.600984 
3435.000000	94.599590 
3434.000000	94.597206 
3433.000000	94.595150 
3432.000000	94.595212 
3431.000000	94.597505 
3430.000000	94.599792 
3429.000000	94.600475 
3428.000000	94.600526 
3427.000000	94.601761 
3426.000000	94.604629 
3425.000000	94.609192 
3424.000000	94.615882 
3423.000000	94.623757 
3422.000000	94.629653 
3421.000000	94.631057 
3420.000000	94.628876 
3419.000000	94.625544 
3418.000000	94.622532 
3417.000000	94.620912 
3416.000000	94.622357 
3415.000000	94.627518 
3414.000000	94.634437 
3413.000000	94.640355 
3412.000000	94.644113 
3411.000000	94.645979 
3410.000000	94.646538 
3409.000000	94.646970 
3408.000000	94.648698 
3407.000000	94.651813 
3406.000000	94.654982 
3405.000000	94.657941 
3404.000000	94.662356 
3403.000000	94.669110 
3402.000000	94.676898 
3401.000000	94.683921 
3400.000000	94.689979 
3399.000000	94.695546 
3398.000000	94.700471 
3397.000000	94.704434 
3396.000000	94.707831 
3395.000000	94.711198 
3394.000000	94.714154 
3393.000000	94.715947 
3392.000000	94.716625 
3391.000000	94.717099 
3390.000000	94.718294 
3389.000000	94.720846 
3388.000000	94.724919 
3387.000000	94.730104 
3386.000000	94.735843 
3385.000000	94.741803 
3384.000000	94.747622 
3383.000000	94.752278 
3382.000000	94.755088 
3381.000000	94.756680 
3380.000000	94.758707 
3379.000000	94.762135 
3378.000000	94.766617 
3377.000000	94.771257 
3376.000000	94.775240 
3375.000000	94.778128 
3374.000000	94.780125 
3373.000000	94.782299 
3372.000000	94.785666 
3371.000000	94.790174 
3370.000000	94.794877 
3369.000000	94.799440 
3368.000000	94.804567 
3367.000000	94.810702 
3366.000000	94.816843 
3365.000000	94.821314 
3364.000000	94.823588 
3363.000000	94.825020 
3362.000000	94.827721 
3361.000000	94.832822 
3360.000000	94.839638 
3359.000000	94.846312 
3358.000000	94.851457 
3357.000000	94.855277 
3356.000000	94.859079 
3355.000000	94.863924 
3354.000000	94.869906 
3353.000000	94.876618 
3352.000000	94.883592 
3351.000000	94.890291 
3350.000000	94.896065 
3349.000000	94.900654 
3348.000000	94.904247 
3347.000000	94.907152 
3346.000000	94.909810 
3345.000000	94.912903 
3344.000000	94.917415 
3343.000000	94.923823 
3342.000000	94.931616 
3341.000000	94.939531 
3340.000000	94.946394 
3339.000000	94.951746 
3338.000000	94.955752 
3337.000000	94.958697 
3336.000000	94.960760 
3335.000000	94.962248 
3334.000000	94.963734 
3333.000000	94.965728 
3332.000000	94.968447 
3331.000000	94.972066 
3330.000000	94.976983 
3329.000000	94.983309 
3328.000000	94.990040 
3327.000000	94.995344 
3326.000000	94.998153 
3325.000000	94.998911 
3324.000000	94.998960 
3323.000000	94.999524 
3322.000000	95.001672 
3321.000000	95.006151 
3320.000000	95.012708 
3319.000000	95.020115 
3318.000000	95.027392 
3317.000000	95.034271 
3316.000000	95.040480 
3315.000000	95.045436 
3314.000000	95.049327 
3313.000000	95.053516 
3312.000000	95.058970 
3311.000000	95.064878 
3310.000000	95.069690 
3309.000000	95.072890 
3308.000000	95.074903 
3307.000000	95.075848 
3306.000000	95.075427 
3305.000000	95.073913 
3304.000000	95.072251 
3303.000000	95.071319 
3302.000000	95.071874 
3301.000000	95.074736 
3300.000000	95.080154 
3299.000000	95.086906 
3298.000000	95.093328 
3297.000000	95.098879 
3296.000000	95.104284 
3295.000000	95.110069 
3294.000000	95.115906 
3293.000000	95.121368 
3292.000000	95.126437 
3291.000000	95.131088 
3290.000000	95.134987 
3289.000000	95.137688 
3288.000000	95.138915 
3287.000000	95.138913 
3286.000000	95.138878 
3285.000000	95.140473 
3284.000000	95.144131 
3283.000000	95.148377 
3282.000000	95.151351 
3281.000000	95.152937 
3280.000000	95.154566 
3279.000000	95.157551 
3278.000000	95.162315 
3277.000000	95.168445 
3276.000000	95.174816 
3275.000000	95.179992 
3274.000000	95.183471 
3273.000000	95.186310 
3272.000000	95.189817 
3271.000000	95.193884 
3270.000000	95.197529 
3269.000000	95.200518 
3268.000000	95.203562 
3267.000000	95.207124 
3266.000000	95.210836 
3265.000000	95.213902 
3264.000000	95.215666 
3263.000000	95.216356 
3262.000000	95.217196 
3261.000000	95.219595 
3260.000000	95.223407 
3259.000000	95.227056 
3258.000000	95.229504 
3257.000000	95.231368 
3256.000000	95.233718 
3255.000000	95.236705 
3254.000000	95.240164 
3253.000000	95.244390 
3252.000000	95.249611 
3251.000000	95.254899 
3250.000000	95.259172 
3249.000000	95.262736 
3248.000000	95.266830 
3247.000000	95.271827 
3246.000000	95.276598 
3245.000000	95.279673 
3244.000000	95.280808 
3243.000000	95.281335 
3242.000000	95.283006 
3241.000000	95.286601 
3240.000000	95.291514 
3239.000000	95.296842 
3238.000000	95.302308 
3237.000000	95.307972 
3236.000000	95.313378 
3235.000000	95.317859 
3234.000000	95.321581 
3233.000000	95.325300 
3232.000000	95.329553 
3231.000000	95.334347 
3230.000000	95.339510 
3229.000000	95.344321 
3228.000000	95.347057 
3227.000000	95.346571 
3226.000000	95.344488 
3225.000000	95.344364 
3224.000000	95.348303 
3223.000000	95.355305 
3222.000000	95.362957 
3221.000000	95.369634 
3220.000000	95.374681 
3219.000000	95.378289 
3218.000000	95.381508 
3217.000000	95.385598 
3216.000000	95.390653 
3215.000000	95.395798 
3214.000000	95.400731 
3213.000000	95.406038 
3212.000000	95.411738 
3211.000000	95.416530 
3210.000000	95.419306 
3209.000000	95.420799 
3208.000000	95.422738 
3207.000000	95.425937 
3206.000000	95.429805 
3205.000000	95.433565 
3204.000000	95.437085 
3203.000000	95.440986 
3202.000000	95.446010 
3201.000000	95.452227 
3200.000000	95.458212 
3199.000000	95.461988 
3198.000000	95.463098 
3197.000000	95.463571 
3196.000000	95.465978 
3195.000000	95.470777 
3194.000000	95.476189 
3193.000000	95.480443 
3192.000000	95.483492 
3191.000000	95.486414 
3190.000000	95.490097 
3189.000000	95.494862 
3188.000000	95.500890 
3187.000000	95.508263 
3186.000000	95.515825 
3185.000000	95.521297 
3184.000000	95.523089 
3183.000000	95.522433 
3182.000000	95.522524 
3181.000000	95.525737 
3180.000000	95.532092 
3179.000000	95.540085 
3178.000000	95.548030 
3177.000000	95.554552 
3176.000000	95.558799 
3175.000000	95.561053 
3174.000000	95.562863 
3173.000000	95.565793 
3172.000000	95.570284 
3171.000000	95.575837 
3170.000000	95.581779 
3169.000000	95.587190 
3168.000000	95.590879 
3167.000000	95.592533 
3166.000000	95.593412 
3165.000000	95.595394 
3164.000000	95.599199 
3163.000000	95.604220 
3162.000000	95.609532 
3161.000000	95.614513 
3160.000000	95.618726 
3159.000000	95.621933 
3158.000000	95.624516 
3157.000000	95.627427 
3156.000000	95.631350 
3155.000000	95.636103 
3154.000000	95.641064 
3153.000000	95.646026 
3152.000000	95.651375 
3151.000000	95.657370 
3150.000000	95.663440 
3149.000000	95.668375 
3148.000000	95.671358 
3147.000000	95.672899 
3146.000000	95.674689 
3145.000000	95.678393 
3144.000000	95.684433 
3143.000000	95.691778 
3142.000000	95.698691 
3141.000000	95.703422 
3140.000000	95.705194 
3139.000000	95.705083 
3138.000000	95.705907 
3137.000000	95.710046 
3136.000000	95.717248 
3135.000000	95.724781 
3134.000000	95.729797 
3133.000000	95.731407 
3132.000000	95.731372 
3131.000000	95.732863 
3130.000000	95.737925 
3129.000000	95.745743 
3128.000000	95.753704 
3127.000000	95.759782 
3126.000000	95.763708 
3125.000000	95.766191 
3124.000000	95.767849 
3123.000000	95.769341 
3122.000000	95.771639 
3121.000000	95.775499 
3120.000000	95.780647 
3119.000000	95.785895 
3118.000000	95.790260 
3117.000000	95.793187 
3116.000000	95.793942 
3115.000000	95.791740 
3114.000000	95.787021 
3113.000000	95.782158 
3112.000000	95.780237 
3111.000000	95.782325 
3110.000000	95.786629 
3109.000000	95.790622 
3108.000000	95.793761 
3107.000000	95.797091 
3106.000000	95.800928 
3105.000000	95.804554 
3104.000000	95.807617 
3103.000000	95.810610 
3102.000000	95.813503 
3101.000000	95.815505 
3100.000000	95.816136 
3099.000000	95.816046 
3098.000000	95.816255 
3097.000000	95.816995 
3096.000000	95.817479 
3095.000000	95.816555 
3094.000000	95.813802 
3093.000000	95.810078 
3092.000000	95.806688 
3091.000000	95.803848 
3090.000000	95.800452 
3089.000000	95.795446 
3088.000000	95.789449 
3087.000000	95.784369 
3086.000000	95.781716 
3085.000000	95.781929 
3084.000000	95.784769 
3083.000000	95.789754 
3082.000000	95.795735 
3081.000000	95.800935 
3080.000000	95.803971 
3079.000000	95.804898 
3078.000000	95.804813 
3077.000000	95.804438 
3076.000000	95.803471 
3075.000000	95.801135 
3074.000000	95.797442 
3073.000000	95.793323 
3072.000000	95.789594 
3071.000000	95.785813 
3070.000000	95.780640 
3069.000000	95.773599 
3068.000000	95.765773 
3067.000000	95.758747 
3066.000000	95.753337 
3065.000000	95.749546 
3064.000000	95.747010 
3063.000000	95.745102 
3062.000000	95.743202 
3061.000000	95.741513 
3060.000000	95.741131 
3059.000000	95.743170 
3058.000000	95.748138 
3057.000000	95.755993 
3056.000000	95.766431 
3055.000000	95.778120 
3054.000000	95.788644 
3053.000000	95.795885 
3052.000000	95.799810 
3051.000000	95.802499 
3050.000000	95.805766 
3049.000000	95.808973 
3048.000000	95.809292 
3047.000000	95.804393 
3046.000000	95.794593 
3045.000000	95.782342 
3044.000000	95.769912 
3043.000000	95.757894 
3042.000000	95.745169 
3041.000000	95.730008 
3040.000000	95.711266 
3039.000000	95.689461 
3038.000000	95.666445 
3037.000000	95.643461 
3036.000000	95.620178 
3035.000000	95.596024 
3034.000000	95.572114 
3033.000000	95.550331 
3032.000000	95.530979 
3031.000000	95.513042 
3030.000000	95.496865 
3029.000000	95.485601 
3028.000000	95.482750 
3027.000000	95.489747 
3026.000000	95.505535 
3025.000000	95.528009 
3024.000000	95.555192 
3023.000000	95.585259 
3022.000000	95.616168 
3021.000000	95.645592 
3020.000000	95.671351 
3019.000000	95.692523 
3018.000000	95.709917 
3017.000000	95.725041 
3016.000000	95.737961 
3015.000000	95.747033 
3014.000000	95.750901 
3013.000000	95.750153 
3012.000000	95.746444 
3011.000000	95.740797 
3010.000000	95.733314 
3009.000000	95.723940 
3008.000000	95.712779 
3007.000000	95.700348 
3006.000000	95.688044 
3005.000000	95.677765 
3004.000000	95.669973 
3003.000000	95.662609 
3002.000000	95.652867 
3001.000000	95.640092 
3000.000000	95.626180 
2999.000000	95.613490 
2998.000000	95.602880 
2997.000000	95.593436 
2996.000000	95.583121 
2995.000000	95.570056 
2994.000000	95.553810 
2993.000000	95.535532 
2992.000000	95.516387 
2991.000000	95.496075 
2990.000000	95.473388 
2989.000000	95.447642 
2988.000000	95.419168 
2987.000000	95.388843 
2986.000000	95.357679 
2985.000000	95.326434 
2984.000000	95.294717 
2983.000000	95.260973 
2982.000000	95.223948 
2981.000000	95.184315 
2980.000000	95.144064 
2979.000000	95.104313 
2978.000000	95.064056 
2977.000000	95.021280 
2976.000000	94.974922 
2975.000000	94.925731 
2974.000000	94.875395 
2973.000000	94.824729 
2972.000000	94.772631 
2971.000000	94.717243 
2970.000000	94.658327 
2969.000000	94.598013 
2968.000000	94.538964 
2967.000000	94.482312 
2966.000000	94.427741 
2965.000000	94.374701 
2964.000000	94.322877 
2963.000000	94.271904 
2962.000000	94.221702 
2961.000000	94.173006 
2960.000000	94.127027 
2959.000000	94.084548 
2958.000000	94.045876 
2957.000000	94.011583 
2956.000000	93.982790 
2955.000000	93.960579 
2954.000000	93.945126 
2953.000000	93.935313 
2952.000000	93.928972 
2951.000000	93.923823 
2950.000000	93.918615 
2949.000000	93.913439 
2948.000000	93.908855 
2947.000000	93.904760 
2946.000000	93.900327 
2945.000000	93.894729 
2944.000000	93.887490 
2943.000000	93.878048 
2942.000000	93.865365 
2941.000000	93.848250 
2940.000000	93.825950 
2939.000000	93.798239 
2938.000000	93.765042 
2937.000000	93.726523 
2936.000000	93.683710 
2935.000000	93.638450 
2934.000000	93.592008 
2933.000000	93.543842 
2932.000000	93.492645 
2931.000000	93.438864 
2930.000000	93.385607 
2929.000000	93.336389 
2928.000000	93.292803 
2927.000000	93.254915 
2926.000000	93.223482 
2925.000000	93.200513 
2924.000000	93.187976 
2923.000000	93.187054 
2922.000000	93.198806 
2921.000000	93.224395 
2920.000000	93.264016 
2919.000000	93.316159 
2918.000000	93.377955 
2917.000000	93.445996 
2916.000000	93.516879 
2915.000000	93.587942 
2914.000000	93.657650 
2913.000000	93.724922 
2912.000000	93.787899 
2911.000000	93.844078 
2910.000000	93.892016 
2909.000000	93.932144 
2908.000000	93.966012 
2907.000000	93.994979 
2906.000000	94.020080 
2905.000000	94.042334 
2904.000000	94.062736 
2903.000000	94.081883 
2902.000000	94.100357 
2901.000000	94.116900 
2900.000000	94.131977 
2899.000000	94.145785 
2898.000000	94.158520 
2897.000000	94.169948 
2896.000000	94.179407 
2895.000000	94.186507 
2894.000000	94.191812 
2893.000000	94.196769 
2892.000000	94.202800 
2891.000000	94.210282 
2890.000000	94.218021 
2889.000000	94.223865 
2888.000000	94.226470 
2887.000000	94.226779 
2886.000000	94.227324 
2885.000000	94.229640 
2884.000000	94.232741 
2883.000000	94.234296 
2882.000000	94.232978 
2881.000000	94.229173 
2880.000000	94.224114 
2879.000000	94.219105 
2878.000000	94.215341 
2877.000000	94.213593 
2876.000000	94.213993 
2875.000000	94.216493 
2874.000000	94.221463 
2873.000000	94.229469 
2872.000000	94.240725 
2871.000000	94.255217 
2870.000000	94.272953 
2869.000000	94.293296 
2868.000000	94.314156 
2867.000000	94.332704 
2866.000000	94.346928 
2865.000000	94.356364 
2864.000000	94.361511 
2863.000000	94.363169 
2862.000000	94.361901 
2861.000000	94.357386 
2860.000000	94.348474 
2859.000000	94.334667 
2858.000000	94.317699 
2857.000000	94.301031 
2856.000000	94.288525 
2855.000000	94.284186 
2854.000000	94.292792 
2853.000000	94.318848 
2852.000000	94.364437 
2851.000000	94.428588 
2850.000000	94.508918 
2849.000000	94.602585 
2848.000000	94.705689 
2847.000000	94.812789 
2846.000000	94.918223 
2845.000000	95.017624 
2844.000000	95.108417 
2843.000000	95.189570 
2842.000000	95.261601 
2841.000000	95.326121 
2840.000000	95.384849 
2839.000000	95.438706 
2838.000000	95.487842 
2837.000000	95.532022 
2836.000000	95.570781 
2835.000000	95.603879 
2834.000000	95.632127 
2833.000000	95.657605 
2832.000000	95.682466 
2831.000000	95.707431 
2830.000000	95.731693 
2829.000000	95.754140 
2828.000000	95.774503 
2827.000000	95.793375 
2826.000000	95.811624 
2825.000000	95.830156 
2824.000000	95.849788 
2823.000000	95.870758 
2822.000000	95.892147 
2821.000000	95.912368 
2820.000000	95.930665 
2819.000000	95.947829 
2818.000000	95.964984 
2817.000000	95.981899 
2816.000000	95.997292 
2815.000000	96.010783 
2814.000000	96.023587 
2813.000000	96.036939 
2812.000000	96.050750 
2811.000000	96.064281 
2810.000000	96.077331 
2809.000000	96.089870 
2808.000000	96.101062 
2807.000000	96.109901 
2806.000000	96.116811 
2805.000000	96.123710 
2804.000000	96.132178 
2803.000000	96.142224 
2802.000000	96.152984 
2801.000000	96.163871 
2800.000000	96.174610 
2799.000000	96.184689 
2798.000000	96.193420 
2797.000000	96.200594 
2796.000000	96.206808 
2795.000000	96.213042 
2794.000000	96.219897 
2793.000000	96.227178 
2792.000000	96.234368 
2791.000000	96.241494 
2790.000000	96.249245 
2789.000000	96.258030 
2788.000000	96.267264 
2787.000000	96.276006 
2786.000000	96.283993 
2785.000000	96.291508 
2784.000000	96.298471 
2783.000000	96.304410 
2782.000000	96.309399 
2781.000000	96.314313 
2780.000000	96.319907 
2779.000000	96.326098 
2778.000000	96.332406 
2777.000000	96.338559 
2776.000000	96.344349 
2775.000000	96.349354 
2774.000000	96.353314 
2773.000000	96.356579 
2772.000000	96.359851 
2771.000000	96.363584 
2770.000000	96.367847 
2769.000000	96.372567 
2768.000000	96.377552 
2767.000000	96.382435 
2766.000000	96.386911 
2765.000000	96.391023 
2764.000000	96.395003 
2763.000000	96.398891 
2762.000000	96.402528 
2761.000000	96.405882 
2760.000000	96.409169 
2759.000000	96.412583 
2758.000000	96.415972 
2757.000000	96.418862 
2756.000000	96.420882 
2755.000000	96.422342 
2754.000000	96.424318 
2753.000000	96.427755 
2752.000000	96.432315 
2751.000000	96.436497 
2750.000000	96.439282 
2749.000000	96.441393 
2748.000000	96.444368 
2747.000000	96.448506 
2746.000000	96.452548 
2745.000000	96.455503 
2744.000000	96.458057 
2743.000000	96.461593 
2742.000000	96.466260 
2741.000000	96.470716 
2740.000000	96.473553 
2739.000000	96.474436 
2738.000000	96.473980 
2737.000000	96.473286 
2736.000000	96.473708 
2735.000000	96.476341 
2734.000000	96.481249 
2733.000000	96.487356 
2732.000000	96.493286 
2731.000000	96.498182 
2730.000000	96.501945 
2729.000000	96.505169 
2728.000000	96.508868 
2727.000000	96.513662 
2726.000000	96.519096 
2725.000000	96.524263 
2724.000000	96.529182 
2723.000000	96.534761 
2722.000000	96.541104 
2721.000000	96.546762 
2720.000000	96.550462 
2719.000000	96.552865 
2718.000000	96.555732 
2717.000000	96.559742 
2716.000000	96.563987 
2715.000000	96.567349 
2714.000000	96.569469 
2713.000000	96.570586 
2712.000000	96.571419 
2711.000000	96.573254 
2710.000000	96.577214 
2709.000000	96.583118 
2708.000000	96.589604 
2707.000000	96.595492 
2706.000000	96.600533 
2705.000000	96.604927 
2704.000000	96.608921 
2703.000000	96.613041 
2702.000000	96.617933 
2701.000000	96.623556 
2700.000000	96.628974 
2699.000000	96.633300 
2698.000000	96.636559 
2697.000000	96.639507 
2696.000000	96.642955 
2695.000000	96.647302 
2694.000000	96.652278 
2693.000000	96.656991 
2692.000000	96.660599 
2691.000000	96.663044 
2690.000000	96.664903 
2689.000000	96.666750 
2688.000000	96.669105 
2687.000000	96.672716 
2686.000000	96.677979 
2685.000000	96.684078 
2684.000000	96.689496 
2683.000000	96.693634 
2682.000000	96.697257 
2681.000000	96.701145 
2680.000000	96.705009 
2679.000000	96.707994 
2678.000000	96.709619 
2677.000000	96.709959 
2676.000000	96.709567 
2675.000000	96.709596 
2674.000000	96.711353 
2673.000000	96.715197 
2672.000000	96.720122 
2671.000000	96.724617 
2670.000000	96.727564 
2669.000000	96.728212 
2668.000000	96.726118 
2667.000000	96.721588 
2666.000000	96.715723 
2665.000000	96.709512 
2664.000000	96.703197 
2663.000000	96.696743 
2662.000000	96.690386 
2661.000000	96.684302 
2660.000000	96.678208 
2659.000000	96.671933 
2658.000000	96.666141 
2657.000000	96.661959 
2656.000000	96.659859 
2655.000000	96.659172 
2654.000000	96.658621 
2653.000000	96.657243 
2652.000000	96.655034 
2651.000000	96.652855 
2650.000000	96.651512 
2649.000000	96.650837 
2648.000000	96.649996 
2647.000000	96.648676 
2646.000000	96.647541 
2645.000000	96.647411 
2644.000000	96.648551 
2643.000000	96.650880 
2642.000000	96.654258 
2641.000000	96.658232 
2640.000000	96.661960 
2639.000000	96.664696 
2638.000000	96.666022 
2637.000000	96.665664 
2636.000000	96.663901 
2635.000000	96.662308 
2634.000000	96.663093 
2633.000000	96.667015 
2632.000000	96.672396 
2631.000000	96.676778 
2630.000000	96.679039 
2629.000000	96.679651 
2628.000000	96.679690 
2627.000000	96.680244 
2626.000000	96.682159 
2625.000000	96.685478 
2624.000000	96.689429 
2623.000000	96.693472 
2622.000000	96.697865 
2621.000000	96.702590 
2620.000000	96.706336 
2619.000000	96.707563 
2618.000000	96.706399 
2617.000000	96.704693 
2616.000000	96.704172 
2615.000000	96.705214 
2614.000000	96.707347 
2613.000000	96.710144 
2612.000000	96.713352 
2611.000000	96.716675 
2610.000000	96.719928 
2609.000000	96.723353 
2608.000000	96.727517 
2607.000000	96.732723 
2606.000000	96.738433 
2605.000000	96.743347 
2604.000000	96.746322 
2603.000000	96.747299 
2602.000000	96.747351 
2601.000000	96.747915 
2600.000000	96.749915 
2599.000000	96.753253 
2598.000000	96.756788 
2597.000000	96.759133 
2596.000000	96.759933 
2595.000000	96.760222 
2594.000000	96.761284 
2593.000000	96.763530 
2592.000000	96.766784 
2591.000000	96.771116 
2590.000000	96.776611 
2589.000000	96.782588 
2588.000000	96.787721 
2587.000000	96.790858 
2586.000000	96.791560 
2585.000000	96.790536 
2584.000000	96.790012 
2583.000000	96.792476 
2582.000000	96.798014 
2581.000000	96.803885 
2580.000000	96.807929 
2579.000000	96.811243 
2578.000000	96.815780 
2577.000000	96.820351 
2576.000000	96.821720 
2575.000000	96.819521 
2574.000000	96.817454 
2573.000000	96.818965 
2572.000000	96.823739 
2571.000000	96.829224 
2570.000000	96.833747 
2569.000000	96.837139 
2568.000000	96.839863 
2567.000000	96.842693 
2566.000000	96.846313 
2565.000000	96.850467 
2564.000000	96.854228 
2563.000000	96.857383 
2562.000000	96.860535 
2561.000000	96.863739 
2560.000000	96.866352 
2559.000000	96.868423 
2558.000000	96.870778 
2557.000000	96.873521 
2556.000000	96.876057 
2555.000000	96.878931 
2554.000000	96.883789 
2553.000000	96.890828 
2552.000000	96.897939 
2551.000000	96.903208 
2550.000000	96.906799 
2549.000000	96.909587 
2548.000000	96.911560 
2547.000000	96.912639 
2546.000000	96.913631 
2545.000000	96.915169 
2544.000000	96.916776 
2543.000000	96.918013 
2542.000000	96.919600 
2541.000000	96.922496 
2540.000000	96.926713 
2539.000000	96.931671 
2538.000000	96.936768 
2537.000000	96.941021 
2536.000000	96.943248 
2535.000000	96.943354 
2534.000000	96.942660 
2533.000000	96.942612 
2532.000000	96.944004 
2531.000000	96.947373 
2530.000000	96.952668 
2529.000000	96.958421 
2528.000000	96.962944 
2527.000000	96.966692 
2526.000000	96.971552 
2525.000000	96.977464 
2524.000000	96.981998 
2523.000000	96.984099 
2522.000000	96.985879 
2521.000000	96.989355 
2520.000000	96.993528 
2519.000000	96.996491 
2518.000000	96.998693 
2517.000000	97.001971 
2516.000000	97.006512 
2515.000000	97.010771 
2514.000000	97.013762 
2513.000000	97.015775 
2512.000000	97.017334 
2511.000000	97.018833 
2510.000000	97.020871 
2509.000000	97.023825 
2508.000000	97.027377 
2507.000000	97.031087 
2506.000000	97.034880 
2505.000000	97.038503 
2504.000000	97.041444 
2503.000000	97.043924 
2502.000000	97.046864 
2501.000000	97.050249 
2500.000000	97.052788 
2499.000000	97.054058 
2498.000000	97.055649 
2497.000000	97.059147 
2496.000000	97.064110 
2495.000000	97.069086 
2494.000000	97.073479 
2493.000000	97.077341 
2492.000000	97.080591 
2491.000000	97.083745 
2490.000000	97.088179 
2489.000000	97.094082 
2488.000000	97.099114 
2487.000000	97.100882 
2486.000000	97.100345 
2485.000000	97.101169 
2484.000000	97.105781 
2483.000000	97.113216 
2482.000000	97.120791 
2481.000000	97.126727 
2480.000000	97.130914 
2479.000000	97.133878 
2478.000000	97.135559 
2477.000000	97.135433 
2476.000000	97.133985 
2475.000000	97.133465 
2474.000000	97.136080 
2473.000000	97.141477 
2472.000000	97.147102 
2471.000000	97.151067 
2470.000000	97.153286 
2469.000000	97.153825 
2468.000000	97.152126 
2467.000000	97.148751 
2466.000000	97.146134 
2465.000000	97.146162 
2464.000000	97.147991 
2463.000000	97.149406 
2462.000000	97.149505 
2461.000000	97.149034 
2460.000000	97.148967 
2459.000000	97.149826 
2458.000000	97.151651 
2457.000000	97.153472 
2456.000000	97.153480 
2455.000000	97.150962 
2454.000000	97.147911 
2453.000000	97.147799 
2452.000000	97.152642 
2451.000000	97.161398 
2450.000000	97.170847 
2449.000000	97.177837 
2448.000000	97.181399 
2447.000000	97.183160 
2446.000000	97.185418 
2445.000000	97.188881 
2444.000000	97.192753 
2443.000000	97.196519 
2442.000000	97.200420 
2441.000000	97.204394 
2440.000000	97.207983 
2439.000000	97.211301 
2438.000000	97.214661 
2437.000000	97.217303 
2436.000000	97.218300 
2435.000000	97.219018 
2434.000000	97.222672 
2433.000000	97.230586 
2432.000000	97.240380 
2431.000000	97.248562 
2430.000000	97.253546 
2429.000000	97.255717 
2428.000000	97.256417 
2427.000000	97.257714 
2426.000000	97.261375 
2425.000000	97.266790 
2424.000000	97.271207 
2423.000000	97.273026 
2422.000000	97.273654 
2421.000000	97.275353 
2420.000000	97.278829 
2419.000000	97.283859 
2418.000000	97.290469 
2417.000000	97.297865 
2416.000000	97.303595 
2415.000000	97.305619 
2414.000000	97.304611 
2413.000000	97.303032 
2412.000000	97.302534 
2411.000000	97.303323 
2410.000000	97.305435 
2409.000000	97.309493 
2408.000000	97.316296 
2407.000000	97.326043 
2406.000000	97.337524 
2405.000000	97.348135 
2404.000000	97.355758 
2403.000000	97.360780 
2402.000000	97.365041 
2401.000000	97.368847 
2400.000000	97.370665 
2399.000000	97.370025 
2398.000000	97.368792 
2397.000000	97.368763 
2396.000000	97.369803 
2395.000000	97.371309 
2394.000000	97.373717 
2393.000000	97.377189 
2392.000000	97.380450 
2391.000000	97.382396 
2390.000000	97.383513 
2389.000000	97.384337 
2388.000000	97.383854 
2387.000000	97.381068 
2386.000000	97.377170 
2385.000000	97.374508 
2384.000000	97.374295 
2383.000000	97.377158 
2382.000000	97.385356 
2381.000000	97.402077 
2380.000000	97.427501 
2379.000000	97.456539 
2378.000000	97.481632 
2377.000000	97.497723 
2376.000000	97.504287 
2375.000000	97.503494 
2374.000000	97.496896 
2373.000000	97.484622 
2372.000000	97.467953 
2371.000000	97.452897 
2370.000000	97.448453 
2369.000000	97.457755 
2368.000000	97.470987 
2367.000000	97.472782 
2366.000000	97.459061 
2365.000000	97.442450 
2364.000000	97.437854 
2363.000000	97.447513 
2362.000000	97.460027 
2361.000000	97.460010 
2360.000000	97.442414 
2359.000000	97.417396 
2358.000000	97.404882 
2357.000000	97.417669 
2356.000000	97.445211 
2355.000000	97.467457 
2354.000000	97.478734 
2353.000000	97.486433 
2352.000000	97.487469 
2351.000000	97.467957 
2350.000000	97.431717 
2349.000000	97.401605 
2348.000000	97.396383 
2347.000000	97.413487 
2346.000000	97.432293 
2345.000000	97.437471 
2344.000000	97.426005 
2343.000000	97.406415 
2342.000000	97.392383 
2341.000000	97.394699 
2340.000000	97.411220 
2339.000000	97.428120 
2338.000000	97.438638 
2337.000000	97.445435 
2336.000000	97.451751 
2335.000000	97.454337 
2334.000000	97.453606 
2333.000000	97.453327 
2332.000000	97.455539 
2331.000000	97.453789 
2330.000000	97.445265 
2329.000000	97.426524 
2328.000000	97.392795 
2327.000000	97.338364 
2326.000000	97.267059 
2325.000000	97.197441 
2324.000000	97.150445 
2323.000000	97.138758 
2322.000000	97.157457 
2321.000000	97.189697 
2320.000000	97.219796 
2319.000000	97.240724 
2318.000000	97.255394 
2317.000000	97.267680 
2316.000000	97.281902 
2315.000000	97.298050 
2314.000000	97.314836 
2313.000000	97.327011 
2312.000000	97.331727 
2311.000000	97.328750 
2310.000000	97.322677 
2309.000000	97.316710 
2308.000000	97.312810 
2307.000000	97.310900 
2306.000000	97.310804 
2305.000000	97.310282 
2304.000000	97.307840 
2303.000000	97.304258 
2302.000000	97.303197 
2301.000000	97.305445 
2300.000000	97.308017 
2299.000000	97.306335 
2298.000000	97.299645 
2297.000000	97.290503 
2296.000000	97.282658 
2295.000000	97.278193 
2294.000000	97.277142 
2293.000000	97.277324 
2292.000000	97.275258 
2291.000000	97.268538 
2290.000000	97.257899 
2289.000000	97.247063 
2288.000000	97.239704 
2287.000000	97.236607 
2286.000000	97.235249 
2285.000000	97.233098 
2284.000000	97.231040 
2283.000000	97.233210 
2282.000000	97.242578 
2281.000000	97.258137 
2280.000000	97.276790 
2279.000000	97.296409 
2278.000000	97.315360 
2277.000000	97.330898 
2276.000000	97.341075 
2275.000000	97.347101 
2274.000000	97.351645 
2273.000000	97.355247 
2272.000000	97.357258 
2271.000000	97.359057 
2270.000000	97.362763 
2269.000000	97.367374 
2268.000000	97.370240 
2267.000000	97.372890 
2266.000000	97.380915 
2265.000000	97.396250 
2264.000000	97.413101 
2263.000000	97.423576 
2262.000000	97.424843 
2261.000000	97.419380 
2260.000000	97.410804 
2259.000000	97.401970 
2258.000000	97.395189 
2257.000000	97.392517 
2256.000000	97.395997 
2255.000000	97.407415 
2254.000000	97.426089 
2253.000000	97.446623 
2252.000000	97.461760 
2251.000000	97.467925 
2250.000000	97.466514 
2249.000000	97.459854 
2248.000000	97.450674 
2247.000000	97.441940 
2246.000000	97.437181 
2245.000000	97.436869 
2244.000000	97.438368 
2243.000000	97.440075 
2242.000000	97.442983 
2241.000000	97.447528 
2240.000000	97.451968 
2239.000000	97.454843 
2238.000000	97.456164 
2237.000000	97.455624 
2236.000000	97.452526 
2235.000000	97.448195 
2234.000000	97.445300 
2233.000000	97.444233 
2232.000000	97.443436 
2231.000000	97.443907 
2230.000000	97.449413 
2229.000000	97.460732 
2228.000000	97.473357 
2227.000000	97.482664 
2226.000000	97.488198 
2225.000000	97.491827 
2224.000000	97.494981 
2223.000000	97.498949 
2222.000000	97.504434 
2221.000000	97.509495 
2220.000000	97.511163 
2219.000000	97.510142 
2218.000000	97.510587 
2217.000000	97.514330 
2216.000000	97.519079 
2215.000000	97.523020 
2214.000000	97.526862 
2213.000000	97.530411 
2212.000000	97.532036 
2211.000000	97.533302 
2210.000000	97.539134 
2209.000000	97.550645 
2208.000000	97.561859 
2207.000000	97.566204 
2206.000000	97.562680 
2205.000000	97.553807 
2204.000000	97.542064 
2203.000000	97.530854 
2202.000000	97.524601 
2201.000000	97.524293 
2200.000000	97.525715 
2199.000000	97.525166 
2198.000000	97.524040 
2197.000000	97.525226 
2196.000000	97.527904 
2195.000000	97.528576 
2194.000000	97.524902 
2193.000000	97.516697 
2192.000000	97.505969 
2191.000000	97.497289 
2190.000000	97.494635 
2189.000000	97.495777 
2188.000000	97.493299 
2187.000000	97.483610 
2186.000000	97.471741 
2185.000000	97.466138 
2184.000000	97.472652 
2183.000000	97.494369 
2182.000000	97.531088 
2181.000000	97.574203 
2180.000000	97.607955 
2179.000000	97.622372 
2178.000000	97.622572 
2177.000000	97.622523 
2176.000000	97.631364 
2175.000000	97.646294 
2174.000000	97.655242 
2173.000000	97.644588 
2172.000000	97.608403 
2171.000000	97.554553 
2170.000000	97.500140 
2169.000000	97.458733 
2168.000000	97.431491 
2167.000000	97.411613 
2166.000000	97.394396 
2165.000000	97.378973 
2164.000000	97.362794 
2163.000000	97.342585 
2162.000000	97.327968 
2161.000000	97.353625 
2160.000000	97.464972 
2159.000000	97.673906 
2158.000000	97.922880 
2157.000000	98.114599 
2156.000000	98.190944 
2155.000000	98.170700 
2154.000000	98.110037 
2153.000000	98.050846 
2152.000000	98.006519 
2151.000000	97.975461 
2150.000000	97.953624 
2149.000000	97.937044 
2148.000000	97.924692 
2147.000000	97.919946 
2146.000000	97.923944 
2145.000000	97.929817 
2144.000000	97.929816 
2143.000000	97.925171 
2142.000000	97.921754 
2141.000000	97.919294 
2140.000000	97.913409 
2139.000000	97.906711 
2138.000000	97.909277 
2137.000000	97.927473 
2136.000000	97.958644 
2135.000000	97.996113 
2134.000000	98.031796 
2133.000000	98.054291 
2132.000000	98.053448 
2131.000000	98.029754 
2130.000000	97.993845 
2129.000000	97.957013 
2128.000000	97.925432 
2127.000000	97.901736 
2126.000000	97.885249 
2125.000000	97.870415 
2124.000000	97.850982 
2123.000000	97.827610 
2122.000000	97.806602 
2121.000000	97.790559 
2120.000000	97.775567 
2119.000000	97.758619 
2118.000000	97.741733 
2117.000000	97.726469 
2116.000000	97.710489 
2115.000000	97.693225 
2114.000000	97.679979 
2113.000000	97.675844 
2112.000000	97.678826 
2111.000000	97.682970 
2110.000000	97.685326 
2109.000000	97.686568 
2108.000000	97.687746 
2107.000000	97.690088 
2106.000000	97.695002 
2105.000000	97.700699 
2104.000000	97.701673 
2103.000000	97.695455 
2102.000000	97.687140 
2101.000000	97.683554 
2100.000000	97.684975 
2099.000000	97.687369 
2098.000000	97.691111 
2097.000000	97.702346 
2096.000000	97.724838 
2095.000000	97.753390 
2094.000000	97.776547 
2093.000000	97.785554 
2092.000000	97.780382 
2091.000000	97.767605 
2090.000000	97.752837 
2089.000000	97.736728 
2088.000000	97.718591 
2087.000000	97.701267 
2086.000000	97.689295 
2085.000000	97.683650 
2084.000000	97.681265 
2083.000000	97.679828 
2082.000000	97.679512 
2081.000000	97.679628 
2080.000000	97.677151 
2079.000000	97.670272 
2078.000000	97.660891 
2077.000000	97.652850 
2076.000000	97.649471 
2075.000000	97.652371 
2074.000000	97.660466 
2073.000000	97.670044 
2072.000000	97.677819 
2071.000000	97.684156 
2070.000000	97.691274 
2069.000000	97.699000 
2068.000000	97.705310 
2067.000000	97.709919 
2066.000000	97.713721 
2065.000000	97.715837 
2064.000000	97.716183 
2063.000000	97.718136 
2062.000000	97.723797 
2061.000000	97.729665 
2060.000000	97.730719 
2059.000000	97.726942 
2058.000000	97.721900 
2057.000000	97.718597 
2056.000000	97.719936 
2055.000000	97.725830 
2054.000000	97.723394 
2053.000000	97.689433 
2052.000000	97.617384 
2051.000000	97.539267 
2050.000000	97.505340 
2049.000000	97.536045 
2048.000000	97.602866 
2047.000000	97.664201 
2046.000000	97.704889 
2045.000000	97.729819 
2044.000000	97.741449 
2043.000000	97.740618 
2042.000000	97.735084 
2041.000000	97.732193 
2040.000000	97.730211 
2039.000000	97.725346 
2038.000000	97.719508 
2037.000000	97.715997 
2036.000000	97.716555 
2035.000000	97.727655 
2034.000000	97.757765 
2033.000000	97.801419 
2032.000000	97.839312 
2031.000000	97.861409 
2030.000000	97.876393 
2029.000000	97.892627 
2028.000000	97.904583 
2027.000000	97.905920 
2026.000000	97.901932 
2025.000000	97.900558 
2024.000000	97.902846 
2023.000000	97.909739 
2022.000000	97.925487 
2021.000000	97.946260 
2020.000000	97.959376 
2019.000000	97.961979 
2018.000000	97.966591 
2017.000000	97.980100 
2016.000000	97.992424 
2015.000000	97.994009 
2014.000000	97.988824 
2013.000000	97.982762 
2012.000000	97.971888 
2011.000000	97.952750 
2010.000000	97.935957 
2009.000000	97.938814 
2008.000000	97.968552 
2007.000000	98.017196 
2006.000000	98.066948 
2005.000000	98.097731 
2004.000000	98.098559 
2003.000000	98.076519 
2002.000000	98.048396 
2001.000000	98.023646 
2000.000000	98.000587 
1999.000000	97.976181 
1998.000000	97.952322 
1997.000000	97.930806 
1996.000000	97.909639 
1995.000000	97.889805 
1994.000000	97.879044 
1993.000000	97.880962 
1992.000000	97.887139 
1991.000000	97.889930 
1990.000000	97.891385 
1989.000000	97.892070 
1988.000000	97.884105 
1987.000000	97.862623 
1986.000000	97.835310 
1985.000000	97.810960 
1984.000000	97.785352 
1983.000000	97.747961 
1982.000000	97.698073 
1981.000000	97.648752 
1980.000000	97.620710 
1979.000000	97.636569 
1978.000000	97.709840 
1977.000000	97.823289 
1976.000000	97.928697 
1975.000000	97.988791 
1974.000000	98.009359 
1973.000000	98.017625 
1972.000000	98.024876 
1971.000000	98.025031 
1970.000000	98.015957 
1969.000000	98.002327 
1968.000000	97.984644 
1967.000000	97.963578 
1966.000000	97.948922 
1965.000000	97.947334 
1964.000000	97.950111 
1963.000000	97.948155 
1962.000000	97.948263 
1961.000000	97.960205 
1960.000000	97.977030 
1959.000000	97.984111 
1958.000000	97.979004 
1957.000000	97.966615 
1956.000000	97.944805 
1955.000000	97.911590 
1954.000000	97.878624 
1953.000000	97.860043 
1952.000000	97.853634 
1951.000000	97.848132 
1950.000000	97.840732 
1949.000000	97.835634 
1948.000000	97.832641 
1947.000000	97.828077 
1946.000000	97.822835 
1945.000000	97.819411 
1944.000000	97.814727 
1943.000000	97.805934 
1942.000000	97.800422 
1941.000000	97.808695 
1940.000000	97.826418 
1939.000000	97.838645 
1938.000000	97.839818 
1937.000000	97.835631 
1936.000000	97.830200 
1935.000000	97.823067 
1934.000000	97.815786 
1933.000000	97.809735 
1932.000000	97.802121 
1931.000000	97.792419 
1930.000000	97.783705 
1929.000000	97.776693 
1928.000000	97.768642 
1927.000000	97.758533 
1926.000000	97.749592 
1925.000000	97.743748 
1924.000000	97.738114 
1923.000000	97.729287 
1922.000000	97.718876 
1921.000000	97.712657 
1920.000000	97.713027 
1919.000000	97.717408 
1918.000000	97.721240 
1917.000000	97.719025 
1916.000000	97.711623 
1915.000000	97.704541 
1914.000000	97.700541 
1913.000000	97.697276 
1912.000000	97.691753 
1911.000000	97.686960 
1910.000000	97.686822 
1909.000000	97.689598 
1908.000000	97.693381 
1907.000000	97.699914 
1906.000000	97.709056 
1905.000000	97.716095 
1904.000000	97.718938 
1903.000000	97.721490 
1902.000000	97.725970 
1901.000000	97.730754 
1900.000000	97.735165 
1899.000000	97.740579 
1898.000000	97.746997 
1897.000000	97.750363 
1896.000000	97.749937 
1895.000000	97.752118 
1894.000000	97.758935 
1893.000000	97.762307 
1892.000000	97.755451 
1891.000000	97.743372 
1890.000000	97.737161 
1889.000000	97.738951 
1888.000000	97.745645 
1887.000000	97.755824 
1886.000000	97.766868 
1885.000000	97.773746 
1884.000000	97.772633 
1883.000000	97.766492 
1882.000000	97.759277 
1881.000000	97.751603 
1880.000000	97.743271 
1879.000000	97.736372 
1878.000000	97.733004 
1877.000000	97.730221 
1876.000000	97.723685 
1875.000000	97.715685 
1874.000000	97.711896 
1873.000000	97.712453 
1872.000000	97.713661 
1871.000000	97.715117 
1870.000000	97.719179 
1869.000000	97.719360 
1868.000000	97.708327 
1867.000000	97.699157 
1866.000000	97.702754 
1865.000000	97.712190 
1864.000000	97.716926 
1863.000000	97.715379 
1862.000000	97.713387 
1861.000000	97.713511 
1860.000000	97.713850 
1859.000000	97.714845 
1858.000000	97.717293 
1857.000000	97.718866 
1856.000000	97.719381 
1855.000000	97.722138 
1854.000000	97.729279 
1853.000000	97.738612 
1852.000000	97.746161 
1851.000000	97.750742 
1850.000000	97.753744 
1849.000000	97.756204 
1848.000000	97.761482 
1847.000000	97.779671 
1846.000000	97.817645 
1845.000000	97.861210 
1844.000000	97.879241 
1843.000000	97.857570 
1842.000000	97.814743 
1841.000000	97.776123 
1840.000000	97.750104 
1839.000000	97.730118 
1838.000000	97.712588 
1837.000000	97.698628 
1836.000000	97.687639 
1835.000000	97.675753 
1834.000000	97.661810 
1833.000000	97.646453 
1832.000000	97.624286 
1831.000000	97.592331 
1830.000000	97.563703 
1829.000000	97.548081 
1828.000000	97.536739 
1827.000000	97.522271 
1826.000000	97.511696 
1825.000000	97.513645 
1824.000000	97.521535 
1823.000000	97.528119 
1822.000000	97.535126 
1821.000000	97.543692 
1820.000000	97.550597 
1819.000000	97.560619 
1818.000000	97.582889 
1817.000000	97.608026 
1816.000000	97.615088 
1815.000000	97.601977 
1814.000000	97.584916 
1813.000000	97.571380 
1812.000000	97.551645 
1811.000000	97.529029 
1810.000000	97.523660 
1809.000000	97.534247 
1808.000000	97.541543 
1807.000000	97.541105 
1806.000000	97.539626 
1805.000000	97.533970 
1804.000000	97.516048 
1803.000000	97.493379 
1802.000000	97.485888 
1801.000000	97.494210 
1800.000000	97.499485 
1799.000000	97.501775 
1798.000000	97.510165 
1797.000000	97.518404 
1796.000000	97.518088 
1795.000000	97.517000 
1794.000000	97.528794 
1793.000000	97.544410 
1792.000000	97.530519 
1791.000000	97.484721 
1790.000000	97.443076 
1789.000000	97.420751 
1788.000000	97.406188 
1787.000000	97.390386 
1786.000000	97.375451 
1785.000000	97.359545 
1784.000000	97.330270 
1783.000000	97.283032 
1782.000000	97.235447 
1781.000000	97.209600 
1780.000000	97.203177 
1779.000000	97.199613 
1778.000000	97.191298 
1777.000000	97.180282 
1776.000000	97.169312 
1775.000000	97.159791 
1774.000000	97.158147 
1773.000000	97.163736 
1772.000000	97.147883 
1771.000000	97.097525 
1770.000000	97.050793 
1769.000000	97.025964 
1768.000000	96.993136 
1767.000000	96.925294 
1766.000000	96.840820 
1765.000000	96.767672 
1764.000000	96.697672 
1763.000000	96.598897 
1762.000000	96.463152 
1761.000000	96.316606 
1760.000000	96.165197 
1759.000000	95.989645 
1758.000000	95.773039 
1757.000000	95.509140 
1756.000000	95.205451 
1755.000000	94.886553 
1754.000000	94.570338 
1753.000000	94.232802 
1752.000000	93.798911 
1751.000000	93.203458 
1750.000000	92.490875 
1749.000000	91.762963 
1748.000000	91.053902 
1747.000000	90.357061 
1746.000000	89.674671 
1745.000000	88.989489 
1744.000000	88.273272 
1743.000000	87.548376 
1742.000000	86.871463 
1741.000000	86.224186 
1740.000000	85.520700 
1739.000000	84.789227 
1738.000000	84.201404 
1737.000000	83.830314 
1736.000000	83.551467 
1735.000000	83.114709 
1734.000000	82.382248 
1733.000000	81.653692 
1732.000000	81.204117 
1731.000000	80.931470 
1730.000000	80.697098 
1729.000000	80.497124 
1728.000000	80.382236 
1727.000000	80.351325 
1726.000000	80.374669 
1725.000000	80.450959 
1724.000000	80.597614 
1723.000000	80.814005 
1722.000000	81.086055 
1721.000000	81.410405 
1720.000000	81.791477 
1719.000000	82.245507 
1718.000000	82.810410 
1717.000000	83.452379 
1716.000000	84.082939 
1715.000000	84.684985 
1714.000000	85.256141 
1713.000000	85.795796 
1712.000000	86.325206 
1711.000000	86.857519 
1710.000000	87.379788 
1709.000000	87.871954 
1708.000000	88.334856 
1707.000000	88.793859 
1706.000000	89.262225 
1705.000000	89.708266 
1704.000000	90.109805 
1703.000000	90.507863 
1702.000000	90.949375 
1701.000000	91.420214 
1700.000000	91.834711 
1699.000000	92.122230 
1698.000000	92.314685 
1697.000000	92.484811 
1696.000000	92.677643 
1695.000000	92.909289 
1694.000000	93.127154 
1693.000000	93.285991 
1692.000000	93.409262 
1691.000000	93.533750 
1690.000000	93.670181 
1689.000000	93.794640 
1688.000000	93.887700 
1687.000000	93.963709 
1686.000000	94.037476 
1685.000000	94.095240 
1684.000000	94.147952 
1683.000000	94.241812 
1682.000000	94.346266 
1681.000000	94.412123 
1680.000000	94.454995 
1679.000000	94.511407 
1678.000000	94.596095 
1677.000000	94.693521 
1676.000000	94.778608 
1675.000000	94.830426 
1674.000000	94.842189 
1673.000000	94.833244 
1672.000000	94.839355 
1671.000000	94.879244 
1670.000000	94.929081 
1669.000000	94.954471 
1668.000000	94.963492 
1667.000000	94.976802 
1666.000000	95.005407 
1665.000000	95.048251 
1664.000000	95.094723 
1663.000000	95.134236 
1662.000000	95.155285 
1661.000000	95.157025 
1660.000000	95.156800 
1659.000000	95.163953 
1658.000000	95.171692 
1657.000000	95.173382 
1656.000000	95.176849 
1655.000000	95.188805 
1654.000000	95.188926 
1653.000000	95.172438 
1652.000000	95.183978 
1651.000000	95.188516 
1650.000000	95.187309 
1649.000000	95.192951 
1648.000000	95.218017 
1647.000000	95.270447 
1646.000000	95.317119 
1645.000000	95.341693 
1644.000000	95.349362 
1643.000000	95.361253 
1642.000000	95.384684 
1641.000000	95.407129 
1640.000000	95.424484 
1639.000000	95.449192 
1638.000000	95.491135 
1637.000000	95.545252 
1636.000000	95.600546 
1635.000000	95.654776 
1634.000000	95.701263 
1633.000000	95.721217 
1632.000000	95.735452 
1631.000000	95.762043 
1630.000000	95.789483 
1629.000000	95.802051 
1628.000000	95.811044 
1627.000000	95.837165 
1626.000000	95.879838 
1625.000000	95.926553 
1624.000000	95.970637 
1623.000000	96.003532 
1622.000000	96.010047 
1621.000000	95.999993 
1620.000000	95.997920 
1619.000000	96.015561 
1618.000000	96.046174 
1617.000000	96.069301 
1616.000000	96.081248 
1615.000000	96.091553 
1614.000000	96.098470 
1613.000000	96.103470 
1612.000000	96.113896 
1611.000000	96.129726 
1610.000000	96.136355 
1609.000000	96.127800 
1608.000000	96.118009 
1607.000000	96.112781 
1606.000000	96.101293 
1605.000000	96.081769 
1604.000000	96.068311 
1603.000000	96.070725 
1602.000000	96.084420 
1601.000000	96.107022 
1600.000000	96.145335 
1599.000000	96.196907 
1598.000000	96.247572 
1597.000000	96.289591 
1596.000000	96.329987 
1595.000000	96.374204 
1594.000000	96.411778 
1593.000000	96.436407 
1592.000000	96.458087 
1591.000000	96.482132 
1590.000000	96.496740 
1589.000000	96.495929 
1588.000000	96.492389 
1587.000000	96.494516 
1586.000000	96.494241 
1585.000000	96.489104 
1584.000000	96.492476 
1583.000000	96.511726 
1582.000000	96.534314 
1581.000000	96.548639 
1580.000000	96.560232 
1579.000000	96.576704 
1578.000000	96.598465 
1577.000000	96.629917 
1576.000000	96.677791 
1575.000000	96.725887 
1574.000000	96.752285 
1573.000000	96.765661 
1572.000000	96.784823 
1571.000000	96.816847 
1570.000000	96.847466 
1569.000000	96.865281 
1568.000000	96.878066 
1567.000000	96.889222 
1566.000000	96.897127 
1565.000000	96.903304 
1564.000000	96.910700 
1563.000000	96.917558 
1562.000000	96.921793 
1561.000000	96.919497 
1560.000000	96.918022 
1559.000000	97.009652 
1558.000000	97.109490 
1557.000000	97.171591 
1556.000000	97.193577 
1555.000000	97.201535 
1554.000000	97.199346 
1553.000000	97.175701 
1552.000000	97.134084 
1551.000000	97.101862 
1550.000000	97.101619 
1549.000000	97.133573 
1548.000000	97.181814 
1547.000000	97.230480 
1546.000000	97.274574 
1545.000000	97.316565 
1544.000000	97.358745 
1543.000000	97.404158 
1542.000000	97.451369 
1541.000000	97.459312 
1540.000000	97.386283 
1539.000000	97.307946 
1538.000000	97.295666 
1537.000000	97.303333 
1536.000000	97.314208 
1535.000000	97.325919 
1534.000000	97.329312 
1533.000000	97.310180 
1532.000000	97.279500 
1531.000000	97.268039 
1530.000000	97.272799 
1529.000000	97.275834 
1528.000000	97.276836 
1527.000000	97.296740 
1526.000000	97.337585 
1525.000000	97.363077 
1524.000000	97.353704 
1523.000000	97.336349 
1522.000000	97.329217 
1521.000000	97.292820 
1520.000000	97.220906 
1519.000000	97.157881 
1518.000000	97.118666 
1517.000000	97.095039 
1516.000000	97.079157 
1515.000000	97.083925 
1514.000000	97.108405 
1513.000000	97.126242 
1512.000000	97.113015 
1511.000000	97.072359 
1510.000000	97.033935 
1509.000000	97.025916 
1508.000000	97.055623 
1507.000000	97.066818 
1506.000000	97.068931 
1505.000000	97.121077 
1504.000000	97.118763 
1503.000000	97.075900 
1502.000000	97.026057 
1501.000000	96.964878 
1500.000000	96.874422 
1499.000000	96.754432 
1498.000000	96.633341 
1497.000000	96.520644 
1496.000000	96.405686 
1495.000000	96.320610 
1494.000000	96.300140 
1493.000000	96.335082 
1492.000000	96.400068 
1491.000000	96.474597 
1490.000000	96.540066 
1489.000000	96.562759 
1488.000000	96.555577 
1487.000000	96.566329 
1486.000000	96.587978 
1485.000000	96.592899 
1484.000000	96.579706 
1483.000000	96.559171 
1482.000000	96.536793 
1481.000000	96.505362 
1480.000000	96.460386 
1479.000000	96.406666 
1478.000000	96.341123 
1477.000000	96.259632 
1476.000000	96.181208 
1475.000000	96.141941 
1474.000000	96.132310 
1473.000000	96.068625 
1472.000000	95.901303 
1471.000000	95.726836 
1470.000000	95.612709 
1469.000000	95.536022 
1468.000000	95.474620 
1467.000000	95.426805 
1466.000000	95.386911 
1465.000000	95.328369 
1464.000000	95.234526 
1463.000000	95.124132 
1462.000000	95.013474 
1461.000000	94.897274 
1460.000000	94.768869 
1459.000000	94.625555 
1458.000000	94.447800 
1457.000000	94.189545 
1456.000000	93.900574 
1455.000000	93.699636 
1454.000000	93.604686 
1453.000000	93.587073 
1452.000000	93.621183 
1451.000000	93.689054 
1450.000000	93.772381 
1449.000000	93.851506 
1448.000000	93.911431 
1447.000000	93.953627 
1446.000000	93.989405 
1445.000000	94.018132 
1444.000000	94.037461 
1443.000000	94.052333 
1442.000000	94.067386 
1441.000000	94.089743 
1440.000000	94.133751 
1439.000000	94.212232 
1438.000000	94.329758 
1437.000000	94.473342 
1436.000000	94.608623 
1435.000000	94.712216 
1434.000000	94.809347 
1433.000000	94.926178 
1432.000000	95.062767 
1431.000000	95.203430 
1430.000000	95.344975 
1429.000000	95.490581 
1428.000000	95.622006 
1427.000000	95.717629 
1426.000000	95.783387 
1425.000000	95.844329 
1424.000000	95.907642 
1423.000000	95.957403 
1422.000000	95.997553 
1421.000000	96.037980 
1420.000000	96.061924 
1419.000000	96.044639 
1418.000000	96.006347 
1417.000000	95.982552 
1416.000000	95.966608 
1415.000000	95.942510 
1414.000000	95.913653 
1413.000000	95.890240 
1412.000000	95.868065 
1411.000000	95.831931 
1410.000000	95.784320 
1409.000000	95.738287 
1408.000000	95.689176 
1407.000000	95.624542 
1406.000000	95.547980 
1405.000000	95.474708 
1404.000000	95.406274 
1403.000000	95.336440 
1402.000000	95.269010 
1401.000000	95.202673 
1400.000000	95.125741 
1399.000000	95.031069 
1398.000000	94.937153 
1397.000000	94.867929 
1396.000000	94.817553 
1395.000000	94.765652 
1394.000000	94.719836 
1393.000000	94.704355 
1392.000000	94.711304 
1391.000000	94.725900 
1390.000000	94.747427 
1389.000000	94.779207 
1388.000000	94.815641 
1387.000000	94.838746 
1386.000000	94.842094 
1385.000000	94.840570 
1384.000000	94.844411 
1383.000000	94.851460 
1382.000000	94.857448 
1381.000000	94.861965 
1380.000000	94.869843 
1379.000000	94.884620 
1378.000000	94.903497 
1377.000000	94.923610 
1376.000000	94.947856 
1375.000000	94.981588 
1374.000000	95.026497 
1373.000000	95.085800 
1372.000000	95.158515 
1371.000000	95.229933 
1370.000000	95.284697 
1369.000000	95.326363 
1368.000000	95.368006 
1367.000000	95.411488 
1366.000000	95.445677 
1365.000000	95.462265 
1364.000000	95.469925 
1363.000000	95.483610 
1362.000000	95.502234 
1361.000000	95.522408 
1360.000000	95.545988 
1359.000000	95.567112 
1358.000000	95.574885 
1357.000000	95.566341 
1356.000000	95.548784 
1355.000000	95.530074 
1354.000000	95.510748 
1353.000000	95.487981 
1352.000000	95.464889 
1351.000000	95.448823 
1350.000000	95.437562 
1349.000000	95.430365 
1348.000000	95.435917 
1347.000000	95.462260 
1346.000000	95.504909 
1345.000000	95.553697 
1344.000000	95.602943 
1343.000000	95.650444 
1342.000000	95.693272 
1341.000000	95.732159 
1340.000000	95.768999 
1339.000000	95.798691 
1338.000000	95.821796 
1337.000000	95.851067 
1336.000000	95.893683 
1335.000000	95.944568 
1334.000000	95.992379 
1333.000000	96.030456 
1332.000000	96.061766 
1331.000000	96.090435 
1330.000000	96.113026 
1329.000000	96.125787 
1328.000000	96.131799 
1327.000000	96.134169 
1326.000000	96.128027 
1325.000000	96.111287 
1324.000000	96.087605 
1323.000000	96.058297 
1322.000000	96.018735 
1321.000000	95.964346 
1320.000000	95.893185 
1319.000000	95.801546 
1318.000000	95.685813 
1317.000000	95.548610 
1316.000000	95.395480 
1315.000000	95.226161 
1314.000000	95.035980 
1313.000000	94.825246 
1312.000000	94.603465 
1311.000000	94.381172 
1310.000000	94.160311 
1309.000000	93.937149 
1308.000000	93.711368 
1307.000000	93.487628 
1306.000000	93.268148 
1305.000000	93.054306 
1304.000000	92.849282 
1303.000000	92.656999 
1302.000000	92.477682 
1301.000000	92.309903 
1300.000000	92.156397 
1299.000000	92.023074 
1298.000000	91.911753 
1297.000000	91.818945 
1296.000000	91.743303 
1295.000000	91.686615 
1294.000000	91.647947 
1293.000000	91.622507 
1292.000000	91.607051 
1291.000000	91.601229 
1290.000000	91.602761 
1289.000000	91.606551 
1288.000000	91.609520 
1287.000000	91.611735 
1286.000000	91.613095 
1285.000000	91.613076 
1284.000000	91.612957 
1283.000000	91.614128 
1282.000000	91.614082 
1281.000000	91.608825 
1280.000000	91.599318 
1279.000000	91.589073 
1278.000000	91.577623 
1277.000000	91.561276 
1276.000000	91.540107 
1275.000000	91.516876 
1274.000000	91.490117 
1273.000000	91.454217 
1272.000000	91.406167 
1271.000000	91.346873 
1270.000000	91.276762 
1269.000000	91.195674 
1268.000000	91.106095 
1267.000000	91.011107 
1266.000000	90.910833 
1265.000000	90.804753 
1264.000000	90.696751 
1263.000000	90.592333 
1262.000000	90.490781 
1261.000000	90.386477 
1260.000000	90.279196 
1259.000000	90.175212 
1258.000000	90.079277 
1257.000000	89.991171 
1256.000000	89.911540 
1255.000000	89.843581 
1254.000000	89.787595 
1253.000000	89.740510 
1252.000000	89.702733 
1251.000000	89.678255 
1250.000000	89.667353 
1249.000000	89.665972 
1248.000000	89.672586 
1247.000000	89.688625 
1246.000000	89.713098 
1245.000000	89.742549 
1244.000000	89.776441 
1243.000000	89.816557 
1242.000000	89.861410 
1241.000000	89.907496 
1240.000000	89.955455 
1239.000000	90.008334 
1238.000000	90.064114 
1237.000000	90.116517 
1236.000000	90.162635 
1235.000000	90.203389 
1234.000000	90.237537 
1233.000000	90.261959 
1232.000000	90.276872 
1231.000000	90.284459 
1230.000000	90.283081 
1229.000000	90.268685 
1228.000000	90.241718 
1227.000000	90.207183 
1226.000000	90.168323 
1225.000000	90.126109 
1224.000000	90.083937 
1223.000000	90.045668 
1222.000000	90.008994 
1221.000000	89.967793 
1220.000000	89.920939 
1219.000000	89.871231 
1218.000000	89.816152 
1217.000000	89.747568 
1216.000000	89.661438 
1215.000000	89.560274 
1214.000000	89.445176 
1213.000000	89.313265 
1212.000000	89.164436 
1211.000000	89.003610 
1210.000000	88.833634 
1209.000000	88.653004 
1208.000000	88.463044 
1207.000000	88.269521 
1206.000000	88.074318 
1205.000000	87.873810 
1204.000000	87.668667 
1203.000000	87.465849 
1202.000000	87.267836 
1201.000000	87.070111 
1200.000000	86.872611 
1199.000000	86.682464 
1198.000000	86.502026 
1197.000000	86.325208 
1196.000000	86.149546 
1195.000000	85.979993 
1194.000000	85.816238 
1193.000000	85.649410 
1192.000000	85.476481 
1191.000000	85.305352 
1190.000000	85.140811 
1189.000000	84.978290 
1188.000000	84.816774 
1187.000000	84.664522 
1186.000000	84.526715 
1185.000000	84.400541 
1184.000000	84.287366 
1183.000000	84.195404 
1182.000000	84.125133 
1181.000000	84.066940 
1180.000000	84.018915 
1179.000000	83.990422 
1178.000000	83.982600 
1177.000000	83.983111 
1176.000000	83.984962 
1175.000000	83.992522 
1174.000000	84.004421 
1173.000000	84.008706 
1172.000000	83.999756 
1171.000000	83.983317 
1170.000000	83.960495 
1169.000000	83.923783 
1168.000000	83.874250 
1167.000000	83.825943 
1166.000000	83.787564 
1165.000000	83.756081 
1164.000000	83.733717 
1163.000000	83.733568 
1162.000000	83.761756 
1161.000000	83.811369 
1160.000000	83.879981 
1159.000000	83.974743 
1158.000000	84.094411 
1157.000000	84.224029 
1156.000000	84.352585 
1155.000000	84.479121 
1154.000000	84.597499 
1153.000000	84.692517 
1152.000000	84.755223 
1151.000000	84.785476 
1150.000000	84.775833 
1149.000000	84.710185 
1148.000000	84.583841 
1147.000000	84.409432 
1146.000000	84.198148 
1145.000000	83.950692 
1144.000000	83.672137 
1143.000000	83.378438 
1142.000000	83.080236 
1141.000000	82.776313 
1140.000000	82.470377 
1139.000000	82.176302 
1138.000000	81.898773 
1137.000000	81.627583 
1136.000000	81.359384 
1135.000000	81.105487 
1134.000000	80.869896 
1133.000000	80.640937 
1132.000000	80.414069 
1131.000000	80.201508 
1130.000000	80.009705 
1129.000000	79.828837 
1128.000000	79.654164 
1127.000000	79.495465 
1126.000000	79.355404 
1125.000000	79.221374 
1124.000000	79.088763 
1123.000000	78.968992 
1122.000000	78.865344 
1121.000000	78.764886 
1120.000000	78.662980 
1119.000000	78.570674 
1118.000000	78.489636 
1117.000000	78.405947 
1116.000000	78.317096 
1115.000000	78.237914 
1114.000000	78.170898 
1113.000000	78.098316 
1112.000000	78.012838 
1111.000000	77.927051 
1110.000000	77.843346 
1109.000000	77.745451 
1108.000000	77.629534 
1107.000000	77.514565 
1106.000000	77.408512 
1105.000000	77.293920 
1104.000000	77.159513 
1103.000000	77.016321 
1102.000000	76.870428 
1101.000000	76.710295 
1100.000000	76.529583 
1099.000000	76.342267 
1098.000000	76.151709 
1097.000000	75.943309 
1096.000000	75.717709 
1095.000000	75.500628 
1094.000000	75.305902 
1093.000000	75.119778 
1092.000000	74.933800 
1091.000000	74.758640 
1090.000000	74.592640 
1089.000000	74.413037 
1088.000000	74.213562 
1087.000000	74.016208 
1086.000000	73.831092 
1085.000000	73.639743 
1084.000000	73.433445 
1083.000000	73.231022 
1082.000000	73.042192 
1081.000000	72.850529 
1080.000000	72.649861 
1079.000000	72.459384 
1078.000000	72.285421 
1077.000000	72.106752 
1076.000000	71.915128 
1075.000000	71.731747 
1074.000000	71.567292 
1073.000000	71.404714 
1072.000000	71.237733 
1071.000000	71.085854 
1070.000000	70.955353 
1069.000000	70.825943 
1068.000000	70.691286 
1067.000000	70.571177 
1066.000000	70.469378 
1065.000000	70.362510 
1064.000000	70.245533 
1063.000000	70.144333 
1062.000000	70.068341 
1061.000000	69.994241 
1060.000000	69.912972 
1059.000000	69.849016 
1058.000000	69.814382 
1057.000000	69.784794 
1056.000000	69.738727 
1055.000000	69.677202 
1054.000000	69.586388 
1053.000000	69.422378 
1052.000000	69.156013 
1051.000000	68.795989 
1050.000000	68.348540 
1049.000000	67.798261 
1048.000000	67.150690 
1047.000000	66.445512 
1046.000000	65.704796 
1045.000000	64.913715 
1044.000000	64.070418 
1043.000000	63.206742 
1042.000000	62.339336 
1041.000000	61.447641 
1040.000000	60.523766 
1039.000000	59.595867 
1038.000000	58.676569 
1037.000000	57.737402 
1036.000000	56.761128 
1035.000000	55.769522 
1034.000000	54.772625 
1033.000000	53.742079 
1032.000000	52.664173 
1031.000000	51.566400 
1030.000000	50.459962 
1029.000000	49.310158 
1028.000000	48.094631 
1027.000000	46.832875 
1026.000000	45.525907 
1025.000000	44.126703 
1024.000000	42.604326 
1023.000000	40.977867 
1022.000000	39.256554 
1021.000000	37.413152 
1020.000000	35.457205 
1019.000000	33.471028 
1018.000000	31.530495 
1017.000000	29.655395 
1016.000000	27.875308 
1015.000000	26.262559 
1014.000000	24.849613 
1013.000000	23.593548 
1012.000000	22.467981 
1011.000000	21.506843 
1010.000000	20.717491 
1009.000000	20.042285 
1008.000000	19.451097 
1007.000000	18.981239 
1006.000000	18.642138 
1005.000000	18.371956 
1004.000000	18.134657 
1003.000000	17.966399 
1002.000000	17.881485 
1001.000000	17.826974 
1000.000000	17.774629 
999.000000	 17.763881 
998.000000	 17.810748 
997.000000	 17.865904 
996.000000	 17.904951 
995.000000	 17.970242 
994.000000	 18.082754 
993.000000	 18.200980 
992.000000	 18.307715 
991.000000	 18.448316 
990.000000	 18.640800 
989.000000	 18.836256 
988.000000	 19.006734 
987.000000	 19.181864 
986.000000	 19.362947 
985.000000	 19.496046 
984.000000	 19.572013 
983.000000	 19.663847 
982.000000	 19.822785 
981.000000	 20.020385 
980.000000	 20.230072 
979.000000	 20.476967 
978.000000	 20.765953 
977.000000	 21.048403 
976.000000	 21.304405 
975.000000	 21.576070 
974.000000	 21.881629 
973.000000	 22.179425 
972.000000	 22.452435 
971.000000	 22.743867 
970.000000	 23.072702 
969.000000	 23.396788 
968.000000	 23.695261 
967.000000	 24.006290 
966.000000	 24.347600 
965.000000	 24.680210 
964.000000	 24.987066 
963.000000	 25.307695 
962.000000	 25.659194 
961.000000	 26.002395 
960.000000	 26.320776 
959.000000	 26.653435 
958.000000	 27.016221 
957.000000	 27.368269 
956.000000	 27.690063 
955.000000	 28.017476 
954.000000	 28.365779 
953.000000	 28.696894 
952.000000	 28.995943 
951.000000	 29.305045 
950.000000	 29.647060 
949.000000	 29.990960 
948.000000	 30.325554 
947.000000	 30.691112 
946.000000	 31.104690 
945.000000	 31.528852 
944.000000	 31.946660 
943.000000	 32.393711 
942.000000	 32.884133 
941.000000	 33.377780 
940.000000	 33.852835 
939.000000	 34.340213 
938.000000	 34.854608 
937.000000	 35.361899 
936.000000	 35.846801 
935.000000	 36.343257 
934.000000	 36.866486 
933.000000	 37.382850 
932.000000	 37.877402 
931.000000	 38.384357 
930.000000	 38.920551 
929.000000	 39.453429 
928.000000	 39.964079 
927.000000	 40.478422 
926.000000	 41.007852 
925.000000	 41.521792 
924.000000	 42.007685 
923.000000	 42.496601 
922.000000	 43.001880 
921.000000	 43.493198 
920.000000	 43.958183 
919.000000	 44.429254 
918.000000	 44.923372 
917.000000	 45.415021 
916.000000	 45.894959 
915.000000	 46.395703 
914.000000	 46.931405 
913.000000	 47.470185 
912.000000	 47.993528 
911.000000	 48.526101 
910.000000	 49.080115 
909.000000	 49.627300 
908.000000	 50.153223 
907.000000	 50.682889 
906.000000	 51.226294 
905.000000	 51.754089 
904.000000	 52.252698 
903.000000	 52.749384 
902.000000	 53.258484 
901.000000	 53.755435 
900.000000	 54.226736 
899.000000	 54.692812 
898.000000	 55.157574 
897.000000	 55.589258 
896.000000	 55.974922 
895.000000	 56.343551 
894.000000	 56.712524 
893.000000	 57.061577 
892.000000	 57.382095 
891.000000	 57.701355 
890.000000	 58.034428 
889.000000	 58.360811 
888.000000	 58.671638 
887.000000	 58.991929 
886.000000	 59.333389 
885.000000	 59.673458 
884.000000	 60.004056 
883.000000	 60.351771 
882.000000	 60.725880 
881.000000	 61.094943 
880.000000	 61.439840 
879.000000	 61.781676 
878.000000	 62.133483 
877.000000	 62.473661 
876.000000	 62.791447 
875.000000	 63.108627 
874.000000	 63.432727 
873.000000	 63.738458 
872.000000	 64.017142 
871.000000	 64.295254 
870.000000	 64.585021 
869.000000	 64.866258 
868.000000	 65.134510 
867.000000	 65.417370 
866.000000	 65.725299 
865.000000	 66.033898 
864.000000	 66.332220 
863.000000	 66.642295 
862.000000	 66.974000 
861.000000	 67.306590 
860.000000	 67.632328 
859.000000	 67.972824 
858.000000	 68.334663 
857.000000	 68.693924 
856.000000	 69.042782 
855.000000	 69.407034 
854.000000	 69.798629 
853.000000	 70.193544 
852.000000	 70.575614 
851.000000	 70.960500 
850.000000	 71.358480 
849.000000	 71.753958 
848.000000	 72.139471 
847.000000	 72.530399 
846.000000	 72.929050 
845.000000	 73.312563 
844.000000	 73.672280 
843.000000	 74.027243 
842.000000	 74.384186 
841.000000	 74.722037 
840.000000	 75.031167 
839.000000	 75.330681 
838.000000	 75.631280 
837.000000	 75.916968 
836.000000	 76.179000 
835.000000	 76.432327 
834.000000	 76.682584 
833.000000	 76.912025 
832.000000	 77.115450 
831.000000	 77.315485 
830.000000	 77.524067 
829.000000	 77.722548 
828.000000	 77.899341 
827.000000	 78.071989 
826.000000	 78.250211 
825.000000	 78.415068 
824.000000	 78.558870 
823.000000	 78.704724 
822.000000	 78.862764 
821.000000	 79.010220 
820.000000	 79.135071 
819.000000	 79.256986 
818.000000	 79.389714 
817.000000	 79.521279 
816.000000	 79.645385 
815.000000	 79.777065 
814.000000	 79.922032 
813.000000	 80.062901 
812.000000	 80.191303 
811.000000	 80.322446 
810.000000	 80.463618 
809.000000	 80.599083 
808.000000	 80.719390 
807.000000	 80.834068 
806.000000	 80.942674 
805.000000	 81.027107 
804.000000	 81.086942 
803.000000	 81.148253 
802.000000	 81.223104 
801.000000	 81.292936 
800.000000	 81.346020 
799.000000	 81.396521 
798.000000	 81.450946 
797.000000	 81.491367 
796.000000	 81.509911 
795.000000	 81.525305 
794.000000	 81.546213 
793.000000	 81.551191 
792.000000	 81.525040 
791.000000	 81.484383 
790.000000	 81.449810 
789.000000	 81.422934 
788.000000	 81.405820 
787.000000	 81.408859 
786.000000	 81.420685 
785.000000	 81.403633 
784.000000	 81.339107 
783.000000	 81.249186 
782.000000	 81.160733 
781.000000	 81.081494 
780.000000	 81.024753 
779.000000	 81.016579 
778.000000	 81.055663 
777.000000	 81.101419 
776.000000	 81.123611 
775.000000	 81.131301 
774.000000	 81.137047 
773.000000	 81.130238 
772.000000	 81.106053 
771.000000	 81.083489 
770.000000	 81.071779 
769.000000	 81.052885 
768.000000	 81.018880 
767.000000	 80.992388 
766.000000	 80.988770 
765.000000	 80.992891 
764.000000	 80.993772 
763.000000	 81.005578 
762.000000	 81.033154 
761.000000	 81.054524 
760.000000	 81.060018 
759.000000	 81.071511 
758.000000	 81.100014 
757.000000	 81.121168 
756.000000	 81.116343 
755.000000	 81.100666 
754.000000	 81.086376 
753.000000	 81.056181 
752.000000	 80.998343 
751.000000	 80.931788 
750.000000	 80.871858 
749.000000	 80.808145 
748.000000	 80.739407 
747.000000	 80.691535 
746.000000	 80.675888 
745.000000	 80.667303 
744.000000	 80.647661 
743.000000	 80.631890 
742.000000	 80.626986 
741.000000	 80.607509 
740.000000	 80.558227 
739.000000	 80.498761 
738.000000	 80.440015 
737.000000	 80.360841 
736.000000	 80.253561 
735.000000	 80.146288 
734.000000	 80.053186 
733.000000	 79.949336 
732.000000	 79.823020 
731.000000	 79.704702 
730.000000	 79.614049 
729.000000	 79.528810 
728.000000	 79.440651 
727.000000	 79.387947 
726.000000	 79.390933 
725.000000	 79.403441 
724.000000	 79.369803 
723.000000	 79.283881 
722.000000	 79.159815 
721.000000	 78.999167 
720.000000	 78.824737 
719.000000	 78.687585 
718.000000	 78.594831 
717.000000	 78.489902 
716.000000	 78.334558 
715.000000	 78.149631 
714.000000	 77.949451 
713.000000	 77.701042 
712.000000	 77.388576 
711.000000	 77.049901 
710.000000	 76.704155 
709.000000	 76.314264 
708.000000	 75.868303 
707.000000	 75.424285 
706.000000	 75.022905 
705.000000	 74.632285 
704.000000	 74.236950 
703.000000	 73.896892 
702.000000	 73.654568 
701.000000	 73.465975 
700.000000	 73.285767 
699.000000	 73.128225 
698.000000	 72.973260 
697.000000	 72.711174 
696.000000	 72.264031 
695.000000	 71.670020 
694.000000	 70.977911 
693.000000	 70.165394 
692.000000	 69.243013 
691.000000	 68.322615 
690.000000	 67.476989 
689.000000	 66.641934 
688.000000	 65.766344 
687.000000	 64.926496 
686.000000	 64.160049 
685.000000	 63.349762 
684.000000	 62.407600 
683.000000	 61.395934 
682.000000	 60.341851 
681.000000	 59.118371 
680.000000	 57.642296 
679.000000	 55.998913 
678.000000	 54.230681 
677.000000	 52.210699 
676.000000	 49.867897 
675.000000	 47.304914 
674.000000	 44.587365 
673.000000	 41.717659 
672.000000	 38.888905 
671.000000	 36.394152 
670.000000	 34.185103 
669.000000	 31.757435 
668.000000	 29.217589 
667.000000	 28.005645 
666.000000	 28.283768 
665.000000	 29.278811 
664.000000	 30.725400 
663.000000	 32.650200 
662.000000	 34.935258 
661.000000	 37.306522 
660.000000	 39.634588 
659.000000	 41.943547 
658.000000	 44.194009 
657.000000	 46.285300 
656.000000	 48.198601 
655.000000	 49.976478 
654.000000	 51.623240 
653.000000	 53.119628 
652.000000	 54.478546 
651.000000	 55.720814 
650.000000	 56.842271 
649.000000	 57.837818 
648.000000	 58.716609 
647.000000	 59.478034 
646.000000	 60.114270 
645.000000	 60.641223 
644.000000	 61.090082 
643.000000	 61.472764 
642.000000	 61.782926 
641.000000	 62.026988 
640.000000	 62.228246 
639.000000	 62.401432 
638.000000	 62.537034 
637.000000	 62.621095 
636.000000	 62.667987 
635.000000	 62.720288 
634.000000	 62.812886 
633.000000	 62.956538 
632.000000	 63.164458 
631.000000	 63.454741 
630.000000	 63.806940 
629.000000	 64.168857 
628.000000	 64.525851 
627.000000	 64.908196 
626.000000	 65.317891 
625.000000	 65.707391 
624.000000	 66.046672 
623.000000	 66.346183 
622.000000	 66.599636 
621.000000	 66.763253 
620.000000	 66.810871 
619.000000	 66.762591 
618.000000	 66.638499 
617.000000	 66.426974 
616.000000	 66.133303 
615.000000	 65.798061 
614.000000	 65.420182 
613.000000	 64.950870 
612.000000	 64.422462 
611.000000	 63.977950 
610.000000	 63.687532 
609.000000	 63.475776 
608.000000	 63.332644 
607.000000	 63.385843 
606.000000	 63.654360 
605.000000	 63.967824 
604.000000	 64.244824 
603.000000	 64.593391 
602.000000	 65.070140 
601.000000	 65.569848 
600.000000	 66.029129 
599.000000	 66.520898 
598.000000	 67.089225 
597.000000	 67.668073 
596.000000	 68.218753 
595.000000	 68.771094 
594.000000	 69.288364 
593.000000	 69.665841 
592.000000	 69.918383 
591.000000	 70.222548 
590.000000	 70.692763 
589.000000	 71.238229 
588.000000	 71.711808 
587.000000	 72.035414 
586.000000	 72.178493 
585.000000	 72.168702 
584.000000	 72.152091 
583.000000	 72.324547 
582.000000	 72.706744 
581.000000	 73.100937 
580.000000	 73.371808 
579.000000	 73.578583 
578.000000	 73.788075 
577.000000	 73.934293 
576.000000	 73.989942 
575.000000	 74.079488 
574.000000	 74.272511 
573.000000	 74.425100 
572.000000	 74.399547 
571.000000	 74.277756 
570.000000	 74.224893 
569.000000	 74.250387 
568.000000	 74.257616 
567.000000	 74.208727 
566.000000	 74.131276 
565.000000	 74.070176 
564.000000	 74.139434 
563.000000	 74.450192 
562.000000	 74.855542 
561.000000	 75.057101 
560.000000	 74.988938 
559.000000	 74.866143 
558.000000	 74.874649 
557.000000	 74.978035 
556.000000	 75.131335 
555.000000	 75.343815 
554.000000	 75.440692 
553.000000	 75.159852 
552.000000	 74.560974 
551.000000	 74.047629 
550.000000	 73.850068 

