PE IR                   SPECTRUM    ASCII       PEDS        1.60        
  -1
FR220607.ASC
22/05/09
15:13:03.00
22/05/09
15:13:03.00
Administrator
Tinta verde escura raspada na superficie da carenagem eixo de transmissao - IR/UATR 80 N - Vitor
550.000000
20









FRONTIER FT-IR/NIR,CPU32 MAIN 00.09.1072 09-JANUARY-2014 12:55:01
MIR TGS
MIR
OPTKBR
100262
0.200000

4.000000
FORTE
RAZ„O
ESPECTRO
MAGNITUDE
UNIVERSAL ATR
DUPLO

COMBINADO


0


#HDR
-1
-1
#GR
CM-1
%T
0.00002384185791015625
0.0
4000.000000
-1.000000
3451
8
89.933922
28.004434
#DATA
4000.000000	88.445133 
3999.000000	88.452110 
3998.000000	88.459092 
3997.000000	88.466066 
3996.000000	88.473059 
3995.000000	88.478493 
3994.000000	88.483725 
3993.000000	88.487706 
3992.000000	88.488981 
3991.000000	88.486477 
3990.000000	88.481307 
3989.000000	88.476065 
3988.000000	88.472665 
3987.000000	88.471039 
3986.000000	88.469965 
3985.000000	88.468527 
3984.000000	88.466813 
3983.000000	88.465221 
3982.000000	88.463936 
3981.000000	88.463424 
3980.000000	88.464899 
3979.000000	88.469442 
3978.000000	88.476662 
3977.000000	88.484675 
3976.000000	88.491427 
3975.000000	88.496282 
3974.000000	88.500137 
3973.000000	88.503828 
3972.000000	88.506501 
3971.000000	88.505956 
3970.000000	88.500886 
3969.000000	88.492327 
3968.000000	88.483395 
3967.000000	88.477845 
3966.000000	88.477763 
3965.000000	88.482211 
3964.000000	88.487740 
3963.000000	88.490977 
3962.000000	88.491282 
3961.000000	88.490847 
3960.000000	88.492157 
3959.000000	88.494966 
3958.000000	88.497092 
3957.000000	88.497051 
3956.000000	88.495480 
3955.000000	88.495359 
3954.000000	88.500378 
3953.000000	88.513360 
3952.000000	88.534819 
3951.000000	88.561201 
3950.000000	88.585033 
3949.000000	88.599563 
3948.000000	88.605972 
3947.000000	88.612995 
3946.000000	88.625861 
3945.000000	88.639284 
3944.000000	88.642072 
3943.000000	88.628189 
3942.000000	88.604523 
3941.000000	88.584733 
3940.000000	88.574507 
3939.000000	88.566823 
3938.000000	88.554979 
3937.000000	88.544505 
3936.000000	88.547311 
3935.000000	88.568654 
3934.000000	88.600477 
3933.000000	88.626879 
3932.000000	88.637744 
3931.000000	88.637893 
3930.000000	88.641641 
3929.000000	88.657374 
3928.000000	88.680253 
3927.000000	88.697236 
3926.000000	88.697701 
3925.000000	88.682491 
3924.000000	88.665251 
3923.000000	88.663694 
3922.000000	88.684047 
3921.000000	88.715927 
3920.000000	88.741716 
3919.000000	88.747216 
3918.000000	88.728661 
3917.000000	88.693399 
3916.000000	88.654333 
3915.000000	88.620926 
3914.000000	88.592303 
3913.000000	88.563021 
3912.000000	88.531294 
3911.000000	88.503105 
3910.000000	88.493974 
3909.000000	88.520633 
3908.000000	88.588987 
3907.000000	88.690779 
3906.000000	88.806053 
3905.000000	88.913130 
3904.000000	89.000062 
3903.000000	89.069600 
3902.000000	89.124747 
3901.000000	89.151094 
3900.000000	89.128092 
3899.000000	89.057180 
3898.000000	88.965777 
3897.000000	88.885065 
3896.000000	88.833508 
3895.000000	88.815333 
3894.000000	88.820521 
3893.000000	88.825732 
3892.000000	88.808676 
3891.000000	88.780099 
3890.000000	88.781997 
3889.000000	88.828102 
3888.000000	88.887698 
3887.000000	88.924333 
3886.000000	88.921651 
3885.000000	88.901338 
3884.000000	88.910002 
3883.000000	88.962245 
3882.000000	89.017848 
3881.000000	89.019443 
3880.000000	88.953040 
3879.000000	88.871313 
3878.000000	88.833138 
3877.000000	88.841041 
3876.000000	88.864447 
3875.000000	88.885760 
3874.000000	88.911169 
3873.000000	88.961715 
3872.000000	89.041690 
3871.000000	89.119117 
3870.000000	89.157560 
3869.000000	89.165258 
3868.000000	89.180599 
3867.000000	89.210281 
3866.000000	89.226800 
3865.000000	89.204721 
3864.000000	89.138259 
3863.000000	89.053607 
3862.000000	88.989860 
3861.000000	88.957892 
3860.000000	88.943322 
3859.000000	88.944065 
3858.000000	88.983129 
3857.000000	89.085486 
3856.000000	89.250633 
3855.000000	89.431767 
3854.000000	89.540530 
3853.000000	89.547824 
3852.000000	89.544200 
3851.000000	89.572446 
3850.000000	89.555270 
3849.000000	89.430378 
3848.000000	89.231863 
3847.000000	89.034634 
3846.000000	88.894583 
3845.000000	88.831419 
3844.000000	88.835944 
3843.000000	88.895350 
3842.000000	88.999330 
3841.000000	89.127071 
3840.000000	89.245444 
3839.000000	89.326025 
3838.000000	89.366286 
3837.000000	89.392105 
3836.000000	89.421307 
3835.000000	89.432186 
3834.000000	89.387337 
3833.000000	89.277410 
3832.000000	89.129947 
3831.000000	88.991848 
3830.000000	88.898484 
3829.000000	88.852654 
3828.000000	88.833157 
3827.000000	88.822846 
3826.000000	88.830662 
3825.000000	88.881074 
3824.000000	88.981578 
3823.000000	89.102532 
3822.000000	89.184684 
3821.000000	89.196057 
3820.000000	89.190123 
3819.000000	89.232764 
3818.000000	89.298735 
3817.000000	89.311589 
3816.000000	89.235984 
3815.000000	89.115872 
3814.000000	89.015847 
3813.000000	88.947800 
3812.000000	88.889362 
3811.000000	88.833641 
3810.000000	88.793720 
3809.000000	88.781262 
3808.000000	88.788573 
3807.000000	88.807371 
3806.000000	88.861168 
3805.000000	88.972097 
3804.000000	89.115505 
3803.000000	89.231113 
3802.000000	89.264877 
3801.000000	89.229139 
3800.000000	89.206485 
3799.000000	89.231113 
3798.000000	89.242506 
3797.000000	89.173809 
3796.000000	89.026351 
3795.000000	88.857524 
3794.000000	88.722148 
3793.000000	88.632685 
3792.000000	88.571726 
3791.000000	88.524024 
3790.000000	88.489200 
3789.000000	88.476506 
3788.000000	88.489578 
3787.000000	88.517519 
3786.000000	88.543370 
3785.000000	88.560866 
3784.000000	88.581483 
3783.000000	88.619406 
3782.000000	88.669972 
3781.000000	88.708476 
3780.000000	88.710530 
3779.000000	88.675454 
3778.000000	88.632163 
3777.000000	88.606372 
3776.000000	88.596236 
3775.000000	88.590234 
3774.000000	88.590557 
3773.000000	88.608163 
3772.000000	88.643530 
3771.000000	88.682431 
3770.000000	88.711580 
3769.000000	88.737521 
3768.000000	88.771475 
3767.000000	88.802462 
3766.000000	88.805390 
3765.000000	88.777469 
3764.000000	88.748794 
3763.000000	88.749556 
3762.000000	88.783821 
3761.000000	88.831675 
3760.000000	88.865123 
3759.000000	88.873612 
3758.000000	88.880778 
3757.000000	88.921119 
3756.000000	89.002541 
3755.000000	89.111955 
3754.000000	89.243869 
3753.000000	89.393162 
3752.000000	89.527809 
3751.000000	89.610242 
3750.000000	89.661701 
3749.000000	89.744137 
3748.000000	89.856924 
3747.000000	89.933922 
3746.000000	89.925957 
3745.000000	89.816300 
3744.000000	89.642780 
3743.000000	89.513095 
3742.000000	89.464636 
3741.000000	89.444091 
3740.000000	89.420164 
3739.000000	89.402469 
3738.000000	89.410163 
3737.000000	89.451089 
3736.000000	89.502384 
3735.000000	89.534589 
3734.000000	89.542267 
3733.000000	89.524011 
3732.000000	89.465393 
3731.000000	89.361205 
3730.000000	89.234794 
3729.000000	89.120043 
3728.000000	89.034830 
3727.000000	88.976524 
3726.000000	88.938410 
3725.000000	88.923471 
3724.000000	88.932502 
3723.000000	88.951130 
3722.000000	88.956591 
3721.000000	88.936001 
3720.000000	88.894706 
3719.000000	88.845701 
3718.000000	88.803075 
3717.000000	88.782600 
3716.000000	88.797223 
3715.000000	88.852064 
3714.000000	88.939168 
3713.000000	89.029467 
3712.000000	89.082092 
3711.000000	89.084795 
3710.000000	89.065290 
3709.000000	89.040218 
3708.000000	88.988293 
3707.000000	88.893692 
3706.000000	88.780655 
3705.000000	88.687192 
3704.000000	88.627309 
3703.000000	88.585126 
3702.000000	88.537219 
3701.000000	88.482908 
3700.000000	88.441890 
3699.000000	88.422321 
3698.000000	88.410295 
3697.000000	88.396032 
3696.000000	88.389166 
3695.000000	88.410026 
3694.000000	88.475955 
3693.000000	88.589552 
3692.000000	88.733517 
3691.000000	88.873790 
3690.000000	88.973403 
3689.000000	89.018593 
3688.000000	89.036209 
3687.000000	89.048404 
3686.000000	89.025418 
3685.000000	88.932725 
3684.000000	88.780752 
3683.000000	88.585993 
3682.000000	88.316608 
3681.000000	87.891608 
3680.000000	87.239278 
3679.000000	86.372605 
3678.000000	85.414252 
3677.000000	84.588106 
3676.000000	84.206758 
3675.000000	84.476353 
3674.000000	85.221128 
3673.000000	86.069955 
3672.000000	86.796453 
3671.000000	87.336406 
3670.000000	87.675293 
3669.000000	87.831912 
3668.000000	87.886411 
3667.000000	87.895635 
3666.000000	87.846694 
3665.000000	87.727775 
3664.000000	87.564412 
3663.000000	87.397033 
3662.000000	87.267446 
3661.000000	87.216128 
3660.000000	87.265249 
3659.000000	87.399662 
3658.000000	87.567672 
3657.000000	87.706645 
3656.000000	87.793002 
3655.000000	87.865058 
3654.000000	87.972056 
3653.000000	88.126332 
3652.000000	88.310488 
3651.000000	88.482760 
3650.000000	88.583894 
3649.000000	88.594473 
3648.000000	88.568115 
3647.000000	88.547958 
3646.000000	88.499572 
3645.000000	88.376074 
3644.000000	88.195133 
3643.000000	88.011605 
3642.000000	87.862686 
3641.000000	87.759356 
3640.000000	87.697543 
3639.000000	87.667144 
3638.000000	87.658114 
3637.000000	87.663623 
3636.000000	87.678031 
3635.000000	87.697658 
3634.000000	87.728992 
3633.000000	87.791302 
3632.000000	87.898873 
3631.000000	88.034357 
3630.000000	88.133766 
3629.000000	88.129569 
3628.000000	88.054308 
3627.000000	88.001644 
3626.000000	87.978711 
3625.000000	87.930761 
3624.000000	87.851219 
3623.000000	87.784911 
3622.000000	87.767867 
3621.000000	87.798769 
3620.000000	87.842870 
3619.000000	87.868809 
3618.000000	87.885500 
3617.000000	87.918403 
3616.000000	87.960709 
3615.000000	87.981499 
3614.000000	87.964415 
3613.000000	87.920151 
3612.000000	87.877278 
3611.000000	87.855033 
3610.000000	87.839670 
3609.000000	87.800476 
3608.000000	87.727147 
3607.000000	87.643805 
3606.000000	87.580404 
3605.000000	87.541363 
3604.000000	87.511186 
3603.000000	87.479178 
3602.000000	87.446817 
3601.000000	87.421936 
3600.000000	87.414520 
3599.000000	87.429785 
3598.000000	87.460422 
3597.000000	87.488364 
3596.000000	87.495361 
3595.000000	87.475071 
3594.000000	87.439174 
3593.000000	87.410877 
3592.000000	87.409969 
3591.000000	87.441723 
3590.000000	87.494678 
3589.000000	87.539530 
3588.000000	87.540532 
3587.000000	87.493075 
3586.000000	87.437031 
3585.000000	87.401413 
3584.000000	87.367441 
3583.000000	87.310076 
3582.000000	87.233719 
3581.000000	87.157388 
3580.000000	87.095121 
3579.000000	87.052240 
3578.000000	87.026328 
3577.000000	87.009743 
3576.000000	86.994404 
3575.000000	86.976479 
3574.000000	86.959170 
3573.000000	86.952540 
3572.000000	86.970637 
3571.000000	87.024504 
3570.000000	87.112197 
3569.000000	87.210479 
3568.000000	87.278627 
3567.000000	87.289953 
3566.000000	87.265331 
3565.000000	87.243655 
3564.000000	87.223813 
3563.000000	87.175462 
3562.000000	87.089321 
3561.000000	86.984547 
3560.000000	86.885427 
3559.000000	86.807495 
3558.000000	86.754629 
3557.000000	86.723458 
3556.000000	86.709248 
3555.000000	86.706197 
3554.000000	86.705242 
3553.000000	86.698313 
3552.000000	86.687705 
3551.000000	86.685867 
3550.000000	86.700646 
3549.000000	86.724741 
3548.000000	86.742474 
3547.000000	86.741657 
3546.000000	86.720091 
3545.000000	86.686309 
3544.000000	86.650832 
3543.000000	86.615238 
3542.000000	86.574697 
3541.000000	86.528554 
3540.000000	86.483302 
3539.000000	86.445909 
3538.000000	86.416714 
3537.000000	86.390904 
3536.000000	86.366228 
3535.000000	86.346546 
3534.000000	86.336394 
3533.000000	86.335258 
3532.000000	86.339660 
3531.000000	86.347655 
3530.000000	86.358247 
3529.000000	86.369017 
3528.000000	86.377892 
3527.000000	86.385291 
3526.000000	86.390771 
3525.000000	86.388465 
3524.000000	86.370506 
3523.000000	86.336226 
3522.000000	86.294754 
3521.000000	86.255808 
3520.000000	86.220402 
3519.000000	86.184102 
3518.000000	86.146394 
3517.000000	86.112599 
3516.000000	86.087788 
3515.000000	86.072481 
3514.000000	86.064858 
3513.000000	86.064068 
3512.000000	86.068913 
3511.000000	86.074585 
3510.000000	86.074602 
3509.000000	86.068078 
3508.000000	86.062286 
3507.000000	86.064336 
3506.000000	86.072503 
3505.000000	86.078096 
3504.000000	86.073097 
3503.000000	86.056564 
3502.000000	86.035346 
3501.000000	86.016236 
3500.000000	85.998768 
3499.000000	85.978211 
3498.000000	85.952322 
3497.000000	85.923039 
3496.000000	85.894123 
3495.000000	85.868748 
3494.000000	85.847970 
3493.000000	85.830529 
3492.000000	85.814837 
3491.000000	85.800989 
3490.000000	85.789668 
3489.000000	85.779959 
3488.000000	85.770112 
3487.000000	85.760462 
3486.000000	85.754062 
3485.000000	85.753087 
3484.000000	85.754693 
3483.000000	85.751837 
3482.000000	85.739227 
3481.000000	85.718481 
3480.000000	85.696349 
3479.000000	85.677229 
3478.000000	85.659237 
3477.000000	85.638259 
3476.000000	85.613392 
3475.000000	85.587694 
3474.000000	85.565504 
3473.000000	85.549508 
3472.000000	85.539256 
3471.000000	85.531805 
3470.000000	85.523449 
3469.000000	85.511566 
3468.000000	85.496149 
3467.000000	85.479630 
3466.000000	85.464722 
3465.000000	85.452220 
3464.000000	85.440506 
3463.000000	85.427123 
3462.000000	85.410892 
3461.000000	85.392449 
3460.000000	85.372749 
3459.000000	85.351526 
3458.000000	85.328076 
3457.000000	85.303248 
3456.000000	85.279348 
3455.000000	85.257705 
3454.000000	85.237415 
3453.000000	85.217995 
3452.000000	85.202476 
3451.000000	85.195357 
3450.000000	85.197194 
3449.000000	85.202223 
3448.000000	85.202399 
3447.000000	85.194445 
3446.000000	85.181802 
3445.000000	85.168202 
3444.000000	85.151590 
3443.000000	85.127419 
3442.000000	85.096217 
3441.000000	85.064829 
3440.000000	85.039836 
3439.000000	85.021581 
3438.000000	85.005719 
3437.000000	84.988983 
3436.000000	84.971363 
3435.000000	84.953439 
3434.000000	84.934463 
3433.000000	84.914250 
3432.000000	84.894738 
3431.000000	84.877784 
3430.000000	84.862866 
3429.000000	84.848127 
3428.000000	84.832756 
3427.000000	84.817359 
3426.000000	84.802916 
3425.000000	84.790525 
3424.000000	84.781033 
3423.000000	84.773739 
3422.000000	84.766036 
3421.000000	84.755581 
3420.000000	84.742404 
3419.000000	84.727729 
3418.000000	84.711499 
3417.000000	84.692643 
3416.000000	84.671415 
3415.000000	84.649868 
3414.000000	84.630191 
3413.000000	84.613458 
3412.000000	84.599452 
3411.000000	84.586809 
3410.000000	84.573767 
3409.000000	84.559673 
3408.000000	84.545572 
3407.000000	84.532941 
3406.000000	84.522426 
3405.000000	84.514026 
3404.000000	84.507407 
3403.000000	84.501652 
3402.000000	84.495554 
3401.000000	84.488558 
3400.000000	84.480315 
3399.000000	84.469248 
3398.000000	84.453835 
3397.000000	84.436277 
3396.000000	84.422504 
3395.000000	84.415950 
3394.000000	84.412715 
3393.000000	84.405678 
3392.000000	84.392541 
3391.000000	84.377101 
3390.000000	84.363203 
3389.000000	84.350695 
3388.000000	84.337639 
3387.000000	84.323642 
3386.000000	84.309854 
3385.000000	84.297702 
3384.000000	84.288557 
3383.000000	84.282909 
3382.000000	84.278795 
3381.000000	84.272360 
3380.000000	84.261281 
3379.000000	84.247069 
3378.000000	84.233407 
3377.000000	84.222829 
3376.000000	84.215527 
3375.000000	84.210384 
3374.000000	84.206185 
3373.000000	84.202298 
3372.000000	84.198982 
3371.000000	84.197028 
3370.000000	84.196807 
3369.000000	84.197650 
3368.000000	84.198087 
3367.000000	84.196592 
3366.000000	84.192613 
3365.000000	84.187461 
3364.000000	84.183667 
3363.000000	84.182407 
3362.000000	84.181663 
3361.000000	84.177919 
3360.000000	84.169910 
3359.000000	84.159934 
3358.000000	84.151300 
3357.000000	84.145195 
3356.000000	84.140326 
3355.000000	84.134965 
3354.000000	84.128906 
3353.000000	84.123540 
3352.000000	84.120179 
3351.000000	84.118440 
3350.000000	84.116537 
3349.000000	84.113079 
3348.000000	84.108100 
3347.000000	84.102450 
3346.000000	84.097185 
3345.000000	84.093756 
3344.000000	84.093256 
3343.000000	84.094648 
3342.000000	84.095148 
3341.000000	84.093474 
3340.000000	84.091680 
3339.000000	84.092236 
3338.000000	84.094199 
3337.000000	84.094204 
3336.000000	84.090594 
3335.000000	84.084574 
3334.000000	84.077626 
3333.000000	84.070215 
3332.000000	84.063211 
3331.000000	84.058227 
3330.000000	84.055693 
3329.000000	84.054266 
3328.000000	84.052931 
3327.000000	84.052259 
3326.000000	84.052585 
3325.000000	84.052367 
3324.000000	84.049676 
3323.000000	84.044606 
3322.000000	84.038921 
3321.000000	84.033743 
3320.000000	84.028895 
3319.000000	84.024436 
3318.000000	84.021698 
3317.000000	84.022191 
3316.000000	84.025722 
3315.000000	84.030166 
3314.000000	84.033450 
3313.000000	84.035565 
3312.000000	84.038066 
3311.000000	84.041439 
3310.000000	84.043762 
3309.000000	84.042731 
3308.000000	84.038492 
3307.000000	84.033459 
3306.000000	84.029393 
3305.000000	84.025550 
3304.000000	84.019890 
3303.000000	84.011607 
3302.000000	84.002395 
3301.000000	83.995571 
3300.000000	83.993817 
3299.000000	83.997379 
3298.000000	84.004289 
3297.000000	84.012108 
3296.000000	84.018980 
3295.000000	84.023256 
3294.000000	84.023649 
3293.000000	84.020599 
3292.000000	84.016635 
3291.000000	84.014183 
3290.000000	84.013267 
3289.000000	84.012093 
3288.000000	84.009228 
3287.000000	84.004365 
3286.000000	83.997954 
3285.000000	83.991481 
3284.000000	83.987475 
3283.000000	83.987640 
3282.000000	83.991009 
3281.000000	83.995055 
3280.000000	83.998487 
3279.000000	84.001913 
3278.000000	84.005968 
3277.000000	84.010234 
3276.000000	84.014040 
3275.000000	84.016950 
3274.000000	84.018282 
3273.000000	84.017259 
3272.000000	84.014034 
3271.000000	84.009764 
3270.000000	84.005447 
3269.000000	84.001483 
3268.000000	83.998391 
3267.000000	83.996887 
3266.000000	83.996934 
3265.000000	83.997460 
3264.000000	83.997388 
3263.000000	83.996516 
3262.000000	83.995263 
3261.000000	83.994125 
3260.000000	83.993751 
3259.000000	83.995002 
3258.000000	83.998213 
3257.000000	84.002582 
3256.000000	84.006600 
3255.000000	84.009244 
3254.000000	84.010821 
3253.000000	84.012376 
3252.000000	84.013966 
3251.000000	84.014098 
3250.000000	84.011828 
3249.000000	84.009023 
3248.000000	84.009040 
3247.000000	84.012570 
3246.000000	84.016270 
3245.000000	84.016743 
3244.000000	84.014648 
3243.000000	84.013334 
3242.000000	84.014221 
3241.000000	84.015613 
3240.000000	84.015917 
3239.000000	84.016066 
3238.000000	84.018153 
3237.000000	84.022869 
3236.000000	84.028932 
3235.000000	84.034398 
3234.000000	84.037947 
3233.000000	84.039287 
3232.000000	84.038755 
3231.000000	84.036737 
3230.000000	84.033623 
3229.000000	84.030032 
3228.000000	84.026737 
3227.000000	84.024261 
3226.000000	84.023054 
3225.000000	84.023998 
3224.000000	84.027564 
3223.000000	84.032270 
3222.000000	84.035306 
3221.000000	84.035475 
3220.000000	84.034676 
3219.000000	84.035668 
3218.000000	84.039202 
3217.000000	84.044119 
3216.000000	84.049030 
3215.000000	84.052651 
3214.000000	84.053510 
3213.000000	84.051062 
3212.000000	84.046569 
3211.000000	84.041723 
3210.000000	84.037198 
3209.000000	84.033525 
3208.000000	84.032109 
3207.000000	84.033463 
3206.000000	84.035278 
3205.000000	84.034463 
3204.000000	84.030987 
3203.000000	84.027837 
3202.000000	84.027064 
3201.000000	84.027671 
3200.000000	84.027757 
3199.000000	84.026970 
3198.000000	84.026113 
3197.000000	84.025847 
3196.000000	84.026476 
3195.000000	84.027816 
3194.000000	84.028587 
3193.000000	84.027105 
3192.000000	84.023459 
3191.000000	84.020215 
3190.000000	84.020079 
3189.000000	84.023189 
3188.000000	84.027343 
3187.000000	84.030444 
3186.000000	84.032025 
3185.000000	84.032445 
3184.000000	84.031550 
3183.000000	84.028750 
3182.000000	84.024193 
3181.000000	84.019365 
3180.000000	84.015915 
3179.000000	84.014083 
3178.000000	84.012876 
3177.000000	84.011530 
3176.000000	84.009806 
3175.000000	84.006944 
3174.000000	84.001926 
3173.000000	83.995471 
3172.000000	83.990433 
3171.000000	83.988909 
3170.000000	83.989496 
3169.000000	83.988521 
3168.000000	83.983637 
3167.000000	83.975392 
3166.000000	83.966025 
3165.000000	83.958058 
3164.000000	83.953684 
3163.000000	83.953856 
3162.000000	83.957266 
3161.000000	83.960782 
3160.000000	83.961325 
3159.000000	83.957698 
3158.000000	83.951367 
3157.000000	83.945675 
3156.000000	83.943280 
3155.000000	83.943675 
3154.000000	83.944047 
3153.000000	83.943062 
3152.000000	83.942326 
3151.000000	83.943135 
3150.000000	83.943533 
3149.000000	83.940512 
3148.000000	83.934153 
3147.000000	83.927410 
3146.000000	83.922241 
3145.000000	83.918257 
3144.000000	83.915058 
3143.000000	83.913569 
3142.000000	83.914376 
3141.000000	83.916176 
3140.000000	83.916507 
3139.000000	83.913403 
3138.000000	83.906529 
3137.000000	83.897838 
3136.000000	83.890973 
3135.000000	83.888484 
3134.000000	83.889505 
3133.000000	83.891169 
3132.000000	83.891871 
3131.000000	83.891781 
3130.000000	83.890667 
3129.000000	83.887734 
3128.000000	83.884117 
3127.000000	83.883086 
3126.000000	83.886389 
3125.000000	83.891847 
3124.000000	83.895806 
3123.000000	83.896971 
3122.000000	83.896833 
3121.000000	83.897139 
3120.000000	83.898132 
3119.000000	83.899060 
3118.000000	83.899281 
3117.000000	83.898728 
3116.000000	83.897840 
3115.000000	83.897052 
3114.000000	83.896265 
3113.000000	83.895061 
3112.000000	83.893341 
3111.000000	83.891311 
3110.000000	83.889002 
3109.000000	83.886478 
3108.000000	83.884595 
3107.000000	83.884995 
3106.000000	83.889244 
3105.000000	83.898165 
3104.000000	83.911481 
3103.000000	83.927139 
3102.000000	83.941673 
3101.000000	83.952539 
3100.000000	83.960103 
3099.000000	83.966485 
3098.000000	83.972572 
3097.000000	83.977523 
3096.000000	83.980987 
3095.000000	83.984169 
3094.000000	83.988382 
3093.000000	83.993695 
3092.000000	83.999509 
3091.000000	84.005421 
3090.000000	84.010881 
3089.000000	84.015043 
3088.000000	84.017691 
3087.000000	84.019857 
3086.000000	84.023187 
3085.000000	84.029147 
3084.000000	84.038723 
3083.000000	84.051801 
3082.000000	84.066506 
3081.000000	84.080027 
3080.000000	84.090757 
3079.000000	84.099267 
3078.000000	84.106989 
3077.000000	84.114757 
3076.000000	84.122772 
3075.000000	84.131224 
3074.000000	84.140418 
3073.000000	84.150912 
3072.000000	84.163904 
3071.000000	84.180826 
3070.000000	84.202176 
3069.000000	84.226757 
3068.000000	84.252078 
3067.000000	84.275359 
3066.000000	84.294715 
3065.000000	84.310558 
3064.000000	84.325779 
3063.000000	84.343498 
3062.000000	84.364344 
3061.000000	84.386452 
3060.000000	84.407974 
3059.000000	84.428832 
3058.000000	84.449967 
3057.000000	84.471830 
3056.000000	84.493911 
3055.000000	84.515096 
3054.000000	84.534334 
3053.000000	84.551641 
3052.000000	84.568557 
3051.000000	84.586796 
3050.000000	84.606447 
3049.000000	84.626107 
3048.000000	84.644798 
3047.000000	84.662764 
3046.000000	84.680329 
3045.000000	84.697251 
3044.000000	84.713568 
3043.000000	84.730053 
3042.000000	84.747163 
3041.000000	84.764299 
3040.000000	84.780886 
3039.000000	84.797707 
3038.000000	84.816387 
3037.000000	84.837799 
3036.000000	84.861352 
3035.000000	84.885542 
3034.000000	84.908705 
3033.000000	84.929278 
3032.000000	84.946192 
3031.000000	84.959497 
3030.000000	84.970671 
3029.000000	84.981934 
3028.000000	84.994804 
3027.000000	85.009274 
3026.000000	85.024395 
3025.000000	85.039789 
3024.000000	85.056181 
3023.000000	85.074049 
3022.000000	85.092421 
3021.000000	85.109596 
3020.000000	85.124915 
3019.000000	85.139140 
3018.000000	85.153347 
3017.000000	85.168046 
3016.000000	85.183192 
3015.000000	85.198382 
3014.000000	85.212958 
3013.000000	85.226377 
3012.000000	85.238417 
3011.000000	85.248760 
3010.000000	85.256828 
3009.000000	85.262621 
3008.000000	85.267349 
3007.000000	85.272335 
3006.000000	85.277348 
3005.000000	85.280633 
3004.000000	85.280635 
3003.000000	85.277242 
3002.000000	85.271527 
3001.000000	85.265109 
3000.000000	85.259546 
2999.000000	85.255397 
2998.000000	85.251414 
2997.000000	85.244864 
2996.000000	85.233047 
2995.000000	85.214694 
2994.000000	85.190456 
2993.000000	85.162442 
2992.000000	85.132544 
2991.000000	85.100564 
2990.000000	85.064210 
2989.000000	85.021425 
2988.000000	84.972527 
2987.000000	84.919288 
2986.000000	84.862333 
2985.000000	84.800290 
2984.000000	84.731722 
2983.000000	84.657082 
2982.000000	84.578475 
2981.000000	84.497809 
2980.000000	84.415383 
2979.000000	84.330090 
2978.000000	84.240920 
2977.000000	84.148264 
2976.000000	84.053591 
2975.000000	83.958099 
2974.000000	83.862106 
2973.000000	83.765819 
2972.000000	83.670058 
2971.000000	83.576030 
2970.000000	83.484839 
2969.000000	83.397331 
2968.000000	83.313922 
2967.000000	83.234720 
2966.000000	83.160602 
2965.000000	83.093986 
2964.000000	83.037263 
2963.000000	82.990040 
2962.000000	82.949434 
2961.000000	82.913695 
2960.000000	82.884157 
2959.000000	82.862370 
2958.000000	82.846605 
2957.000000	82.832862 
2956.000000	82.818709 
2955.000000	82.804555 
2954.000000	82.791182 
2953.000000	82.777366 
2952.000000	82.760230 
2951.000000	82.737251 
2950.000000	82.707890 
2949.000000	82.673644 
2948.000000	82.636261 
2947.000000	82.595224 
2946.000000	82.547371 
2945.000000	82.489396 
2944.000000	82.420650 
2943.000000	82.343303 
2942.000000	82.260766 
2941.000000	82.176280 
2940.000000	82.091868 
2939.000000	82.007533 
2938.000000	81.922108 
2937.000000	81.835933 
2936.000000	81.752036 
2935.000000	81.673761 
2934.000000	81.602036 
2933.000000	81.536231 
2932.000000	81.476962 
2931.000000	81.426207 
2930.000000	81.384985 
2929.000000	81.352386 
2928.000000	81.327360 
2927.000000	81.310439 
2926.000000	81.303246 
2925.000000	81.306877 
2924.000000	81.321070 
2923.000000	81.344739 
2922.000000	81.377525 
2921.000000	81.421006 
2920.000000	81.477701 
2919.000000	81.548265 
2918.000000	81.629820 
2917.000000	81.717579 
2916.000000	81.807496 
2915.000000	81.897176 
2914.000000	81.984973 
2913.000000	82.069335 
2912.000000	82.148671 
2911.000000	82.221250 
2910.000000	82.285748 
2909.000000	82.342642 
2908.000000	82.394494 
2907.000000	82.444065 
2906.000000	82.492205 
2905.000000	82.538312 
2904.000000	82.582039 
2903.000000	82.623449 
2902.000000	82.661987 
2901.000000	82.696754 
2900.000000	82.727727 
2899.000000	82.756666 
2898.000000	82.785138 
2897.000000	82.813507 
2896.000000	82.840761 
2895.000000	82.865041 
2894.000000	82.885045 
2893.000000	82.901448 
2892.000000	82.916553 
2891.000000	82.931889 
2890.000000	82.946438 
2889.000000	82.957916 
2888.000000	82.965241 
2887.000000	82.969198 
2886.000000	82.971526 
2885.000000	82.974103 
2884.000000	82.978069 
2883.000000	82.982569 
2882.000000	82.985092 
2881.000000	82.984261 
2880.000000	82.981676 
2879.000000	82.979548 
2878.000000	82.977341 
2877.000000	82.972538 
2876.000000	82.964283 
2875.000000	82.954587 
2874.000000	82.945560 
2873.000000	82.937272 
2872.000000	82.928678 
2871.000000	82.919180 
2870.000000	82.908732 
2869.000000	82.897445 
2868.000000	82.885521 
2867.000000	82.872543 
2866.000000	82.856467 
2865.000000	82.834462 
2864.000000	82.805258 
2863.000000	82.770061 
2862.000000	82.730849 
2861.000000	82.689100 
2860.000000	82.646669 
2859.000000	82.606823 
2858.000000	82.573438 
2857.000000	82.549291 
2856.000000	82.535610 
2855.000000	82.532987 
2854.000000	82.542619 
2853.000000	82.567040 
2852.000000	82.609599 
2851.000000	82.672385 
2850.000000	82.754274 
2849.000000	82.850830 
2848.000000	82.956325 
2847.000000	83.065327 
2846.000000	83.173423 
2845.000000	83.277586 
2844.000000	83.376562 
2843.000000	83.470137 
2842.000000	83.557829 
2841.000000	83.638651 
2840.000000	83.712291 
2839.000000	83.779640 
2838.000000	83.841731 
2837.000000	83.898608 
2836.000000	83.949696 
2835.000000	83.994879 
2834.000000	84.034814 
2833.000000	84.070517 
2832.000000	84.102990 
2831.000000	84.133146 
2830.000000	84.161759 
2829.000000	84.189286 
2828.000000	84.215754 
2827.000000	84.240930 
2826.000000	84.264838 
2825.000000	84.287939 
2824.000000	84.310338 
2823.000000	84.330918 
2822.000000	84.348121 
2821.000000	84.361959 
2820.000000	84.374576 
2819.000000	84.388169 
2818.000000	84.403064 
2817.000000	84.418411 
2816.000000	84.433973 
2815.000000	84.450230 
2814.000000	84.467082 
2813.000000	84.483454 
2812.000000	84.498215 
2811.000000	84.510966 
2810.000000	84.522085 
2809.000000	84.532600 
2808.000000	84.543775 
2807.000000	84.556119 
2806.000000	84.568993 
2805.000000	84.581588 
2804.000000	84.593883 
2803.000000	84.606186 
2802.000000	84.618226 
2801.000000	84.629478 
2800.000000	84.640018 
2799.000000	84.650383 
2798.000000	84.660846 
2797.000000	84.671366 
2796.000000	84.681776 
2795.000000	84.691412 
2794.000000	84.699136 
2793.000000	84.704663 
2792.000000	84.709445 
2791.000000	84.715460 
2790.000000	84.723354 
2789.000000	84.732422 
2788.000000	84.741916 
2787.000000	84.751499 
2786.000000	84.760797 
2785.000000	84.769483 
2784.000000	84.777625 
2783.000000	84.785278 
2782.000000	84.792078 
2781.000000	84.797976 
2780.000000	84.803944 
2779.000000	84.811044 
2778.000000	84.819114 
2777.000000	84.827154 
2776.000000	84.834635 
2775.000000	84.841568 
2774.000000	84.847667 
2773.000000	84.852494 
2772.000000	84.856309 
2771.000000	84.859909 
2770.000000	84.863697 
2769.000000	84.867582 
2768.000000	84.871548 
2767.000000	84.875644 
2766.000000	84.879638 
2765.000000	84.883404 
2764.000000	84.887396 
2763.000000	84.892078 
2762.000000	84.897183 
2761.000000	84.902152 
2760.000000	84.906935 
2759.000000	84.911650 
2758.000000	84.915918 
2757.000000	84.919333 
2756.000000	84.922230 
2755.000000	84.925200 
2754.000000	84.928217 
2753.000000	84.930963 
2752.000000	84.933658 
2751.000000	84.936819 
2750.000000	84.940499 
2749.000000	84.944356 
2748.000000	84.948027 
2747.000000	84.950966 
2746.000000	84.952687 
2745.000000	84.953850 
2744.000000	84.956227 
2743.000000	84.960651 
2742.000000	84.965693 
2741.000000	84.969433 
2740.000000	84.971818 
2739.000000	84.974180 
2738.000000	84.977134 
2737.000000	84.980272 
2736.000000	84.983414 
2735.000000	84.986799 
2734.000000	84.990306 
2733.000000	84.993647 
2732.000000	84.997062 
2731.000000	85.000835 
2730.000000	85.004569 
2729.000000	85.007991 
2728.000000	85.011920 
2727.000000	85.017174 
2726.000000	85.022994 
2725.000000	85.027861 
2724.000000	85.031520 
2723.000000	85.034915 
2722.000000	85.038510 
2721.000000	85.042006 
2720.000000	85.045490 
2719.000000	85.049447 
2718.000000	85.053699 
2717.000000	85.057580 
2716.000000	85.061015 
2715.000000	85.064261 
2714.000000	85.066918 
2713.000000	85.068639 
2712.000000	85.070646 
2711.000000	85.074914 
2710.000000	85.081570 
2709.000000	85.088520 
2708.000000	85.094067 
2707.000000	85.098612 
2706.000000	85.103308 
2705.000000	85.108032 
2704.000000	85.111529 
2703.000000	85.113043 
2702.000000	85.113489 
2701.000000	85.115122 
2700.000000	85.119789 
2699.000000	85.126844 
2698.000000	85.133158 
2697.000000	85.136053 
2696.000000	85.136149 
2695.000000	85.136606 
2694.000000	85.139710 
2693.000000	85.144965 
2692.000000	85.150244 
2691.000000	85.153881 
2690.000000	85.155713 
2689.000000	85.156853 
2688.000000	85.158605 
2687.000000	85.161246 
2686.000000	85.164197 
2685.000000	85.167539 
2684.000000	85.172385 
2683.000000	85.178900 
2682.000000	85.184992 
2681.000000	85.188292 
2680.000000	85.188876 
2679.000000	85.188758 
2678.000000	85.189230 
2677.000000	85.190232 
2676.000000	85.191824 
2675.000000	85.194472 
2674.000000	85.197678 
2673.000000	85.200019 
2672.000000	85.201043 
2671.000000	85.201996 
2670.000000	85.204079 
2669.000000	85.206925 
2668.000000	85.209278 
2667.000000	85.210447 
2666.000000	85.210527 
2665.000000	85.209554 
2664.000000	85.206953 
2663.000000	85.201884 
2662.000000	85.194254 
2661.000000	85.185319 
2660.000000	85.176843 
2659.000000	85.169456 
2658.000000	85.162454 
2657.000000	85.155403 
2656.000000	85.149021 
2655.000000	85.143994 
2654.000000	85.139965 
2653.000000	85.136550 
2652.000000	85.134309 
2651.000000	85.133671 
2650.000000	85.133671 
2649.000000	85.132995 
2648.000000	85.131572 
2647.000000	85.130052 
2646.000000	85.128475 
2645.000000	85.126728 
2644.000000	85.125628 
2643.000000	85.126090 
2642.000000	85.127605 
2641.000000	85.128805 
2640.000000	85.129142 
2639.000000	85.128805 
2638.000000	85.127613 
2637.000000	85.125345 
2636.000000	85.122814 
2635.000000	85.121214 
2634.000000	85.120735 
2633.000000	85.120857 
2632.000000	85.121489 
2631.000000	85.122633 
2630.000000	85.123556 
2629.000000	85.123660 
2628.000000	85.123641 
2627.000000	85.124444 
2626.000000	85.125582 
2625.000000	85.125874 
2624.000000	85.125215 
2623.000000	85.124274 
2622.000000	85.123002 
2621.000000	85.120864 
2620.000000	85.118058 
2619.000000	85.115283 
2618.000000	85.112958 
2617.000000	85.111781 
2616.000000	85.112924 
2615.000000	85.116144 
2614.000000	85.118787 
2613.000000	85.118577 
2612.000000	85.116537 
2611.000000	85.115368 
2610.000000	85.115739 
2609.000000	85.116134 
2608.000000	85.115611 
2607.000000	85.114771 
2606.000000	85.114615 
2605.000000	85.116119 
2604.000000	85.120012 
2603.000000	85.125149 
2602.000000	85.128148 
2601.000000	85.127008 
2600.000000	85.124213 
2599.000000	85.123962 
2598.000000	85.126937 
2597.000000	85.130157 
2596.000000	85.131269 
2595.000000	85.130528 
2594.000000	85.128995 
2593.000000	85.127436 
2592.000000	85.126915 
2591.000000	85.128217 
2590.000000	85.130621 
2589.000000	85.132849 
2588.000000	85.134779 
2587.000000	85.136526 
2586.000000	85.136899 
2585.000000	85.134988 
2584.000000	85.132514 
2583.000000	85.132082 
2582.000000	85.133784 
2581.000000	85.135880 
2580.000000	85.138048 
2579.000000	85.141223 
2578.000000	85.144700 
2577.000000	85.146209 
2576.000000	85.144967 
2575.000000	85.142399 
2574.000000	85.140024 
2573.000000	85.138628 
2572.000000	85.138902 
2571.000000	85.140686 
2570.000000	85.142158 
2569.000000	85.142115 
2568.000000	85.142380 
2567.000000	85.145517 
2566.000000	85.150886 
2565.000000	85.155594 
2564.000000	85.158546 
2563.000000	85.160764 
2562.000000	85.162354 
2561.000000	85.162276 
2560.000000	85.160942 
2559.000000	85.160150 
2558.000000	85.160522 
2557.000000	85.161550 
2556.000000	85.163736 
2555.000000	85.167849 
2554.000000	85.172370 
2553.000000	85.174698 
2552.000000	85.174837 
2551.000000	85.175172 
2550.000000	85.176731 
2549.000000	85.178455 
2548.000000	85.180049 
2547.000000	85.182525 
2546.000000	85.185753 
2545.000000	85.188215 
2544.000000	85.189390 
2543.000000	85.189942 
2542.000000	85.189719 
2541.000000	85.188335 
2540.000000	85.187510 
2539.000000	85.189782 
2538.000000	85.194650 
2537.000000	85.198743 
2536.000000	85.200114 
2535.000000	85.199839 
2534.000000	85.199388 
2533.000000	85.199268 
2532.000000	85.200390 
2531.000000	85.203735 
2530.000000	85.208114 
2529.000000	85.210921 
2528.000000	85.211666 
2527.000000	85.212327 
2526.000000	85.213835 
2525.000000	85.214890 
2524.000000	85.214701 
2523.000000	85.214305 
2522.000000	85.214497 
2521.000000	85.214787 
2520.000000	85.215067 
2519.000000	85.216177 
2518.000000	85.218074 
2517.000000	85.219315 
2516.000000	85.219007 
2515.000000	85.217901 
2514.000000	85.217463 
2513.000000	85.219218 
2512.000000	85.224390 
2511.000000	85.232178 
2510.000000	85.238872 
2509.000000	85.240922 
2508.000000	85.238820 
2507.000000	85.236073 
2506.000000	85.234982 
2505.000000	85.235579 
2504.000000	85.237625 
2503.000000	85.240567 
2502.000000	85.241976 
2501.000000	85.239441 
2500.000000	85.234416 
2499.000000	85.231332 
2498.000000	85.232388 
2497.000000	85.235703 
2496.000000	85.238797 
2495.000000	85.241252 
2494.000000	85.243344 
2493.000000	85.244901 
2492.000000	85.246455 
2491.000000	85.249334 
2490.000000	85.253574 
2489.000000	85.257265 
2488.000000	85.258630 
2487.000000	85.257495 
2486.000000	85.254673 
2485.000000	85.251424 
2484.000000	85.249432 
2483.000000	85.249679 
2482.000000	85.251332 
2481.000000	85.252987 
2480.000000	85.254514 
2479.000000	85.256288 
2478.000000	85.257560 
2477.000000	85.257502 
2476.000000	85.257023 
2475.000000	85.257466 
2474.000000	85.258278 
2473.000000	85.258041 
2472.000000	85.256951 
2471.000000	85.256150 
2470.000000	85.255641 
2469.000000	85.255107 
2468.000000	85.255455 
2467.000000	85.256903 
2466.000000	85.256948 
2465.000000	85.253487 
2464.000000	85.248874 
2463.000000	85.247291 
2462.000000	85.248687 
2461.000000	85.249040 
2460.000000	85.246388 
2459.000000	85.242871 
2458.000000	85.240640 
2457.000000	85.239401 
2456.000000	85.238516 
2455.000000	85.238070 
2454.000000	85.237174 
2453.000000	85.234508 
2452.000000	85.231472 
2451.000000	85.231620 
2450.000000	85.235747 
2449.000000	85.240258 
2448.000000	85.241772 
2447.000000	85.241076 
2446.000000	85.241287 
2445.000000	85.244071 
2444.000000	85.248644 
2443.000000	85.252785 
2442.000000	85.254247 
2441.000000	85.252902 
2440.000000	85.251824 
2439.000000	85.254400 
2438.000000	85.260119 
2437.000000	85.265115 
2436.000000	85.266885 
2435.000000	85.266409 
2434.000000	85.265643 
2433.000000	85.265496 
2432.000000	85.266633 
2431.000000	85.269711 
2430.000000	85.273910 
2429.000000	85.277134 
2428.000000	85.278456 
2427.000000	85.278917 
2426.000000	85.279650 
2425.000000	85.280811 
2424.000000	85.282418 
2423.000000	85.284451 
2422.000000	85.286036 
2421.000000	85.286333 
2420.000000	85.286319 
2419.000000	85.287925 
2418.000000	85.291356 
2417.000000	85.294986 
2416.000000	85.297872 
2415.000000	85.300615 
2414.000000	85.303749 
2413.000000	85.306912 
2412.000000	85.309602 
2411.000000	85.311508 
2410.000000	85.312547 
2409.000000	85.313966 
2408.000000	85.318467 
2407.000000	85.327183 
2406.000000	85.337153 
2405.000000	85.343895 
2404.000000	85.346089 
2403.000000	85.345913 
2402.000000	85.345742 
2401.000000	85.346654 
2400.000000	85.349085 
2399.000000	85.352356 
2398.000000	85.354203 
2397.000000	85.353324 
2396.000000	85.351841 
2395.000000	85.352650 
2394.000000	85.355067 
2393.000000	85.356103 
2392.000000	85.355547 
2391.000000	85.356246 
2390.000000	85.359013 
2389.000000	85.360376 
2388.000000	85.356267 
2387.000000	85.345713 
2386.000000	85.330502 
2385.000000	85.314069 
2384.000000	85.302010 
2383.000000	85.301550 
2382.000000	85.318659 
2381.000000	85.355793 
2380.000000	85.411587 
2379.000000	85.480228 
2378.000000	85.550710 
2377.000000	85.609701 
2376.000000	85.647007 
2375.000000	85.657860 
2374.000000	85.641689 
2373.000000	85.603316 
2372.000000	85.555843 
2371.000000	85.516564 
2370.000000	85.497022 
2369.000000	85.498306 
2368.000000	85.513544 
2367.000000	85.530088 
2366.000000	85.534752 
2365.000000	85.526321 
2364.000000	85.518829 
2363.000000	85.523473 
2362.000000	85.533523 
2361.000000	85.535428 
2360.000000	85.529188 
2359.000000	85.523441 
2358.000000	85.522161 
2357.000000	85.531891 
2356.000000	85.559979 
2355.000000	85.598681 
2354.000000	85.630365 
2353.000000	85.647921 
2352.000000	85.648815 
2351.000000	85.623322 
2350.000000	85.575021 
2349.000000	85.531410 
2348.000000	85.516051 
2347.000000	85.525056 
2346.000000	85.532025 
2345.000000	85.517847 
2344.000000	85.486213 
2343.000000	85.455115 
2342.000000	85.446364 
2341.000000	85.466052 
2340.000000	85.497600 
2339.000000	85.517822 
2338.000000	85.520250 
2337.000000	85.516433 
2336.000000	85.516308 
2335.000000	85.516729 
2334.000000	85.512142 
2333.000000	85.506890 
2332.000000	85.506697 
2331.000000	85.505759 
2330.000000	85.491646 
2329.000000	85.459464 
2328.000000	85.412549 
2327.000000	85.356757 
2326.000000	85.295726 
2325.000000	85.238474 
2324.000000	85.198775 
2323.000000	85.187708 
2322.000000	85.204085 
2321.000000	85.232319 
2320.000000	85.255020 
2319.000000	85.262501 
2318.000000	85.256871 
2317.000000	85.246972 
2316.000000	85.242343 
2315.000000	85.244919 
2314.000000	85.247490 
2313.000000	85.242272 
2312.000000	85.229188 
2311.000000	85.214979 
2310.000000	85.204621 
2309.000000	85.198599 
2308.000000	85.194553 
2307.000000	85.190973 
2306.000000	85.185901 
2305.000000	85.178011 
2304.000000	85.166906 
2303.000000	85.153945 
2302.000000	85.140687 
2301.000000	85.129083 
2300.000000	85.119946 
2299.000000	85.111675 
2298.000000	85.100901 
2297.000000	85.088152 
2296.000000	85.079125 
2295.000000	85.078255 
2294.000000	85.081919 
2293.000000	85.082485 
2292.000000	85.076754 
2291.000000	85.067464 
2290.000000	85.057913 
2289.000000	85.049119 
2288.000000	85.041370 
2287.000000	85.034657 
2286.000000	85.028304 
2285.000000	85.023149 
2284.000000	85.022979 
2283.000000	85.030206 
2282.000000	85.041381 
2281.000000	85.050940 
2280.000000	85.058158 
2279.000000	85.065621 
2278.000000	85.072480 
2277.000000	85.075162 
2276.000000	85.074333 
2275.000000	85.074951 
2274.000000	85.078974 
2273.000000	85.083619 
2272.000000	85.087153 
2271.000000	85.091124 
2270.000000	85.095933 
2269.000000	85.099431 
2268.000000	85.101195 
2267.000000	85.103853 
2266.000000	85.109199 
2265.000000	85.116282 
2264.000000	85.123562 
2263.000000	85.129205 
2262.000000	85.129786 
2261.000000	85.123179 
2260.000000	85.112470 
2259.000000	85.103199 
2258.000000	85.097351 
2257.000000	85.094166 
2256.000000	85.095287 
2255.000000	85.103476 
2254.000000	85.116584 
2253.000000	85.128088 
2252.000000	85.133938 
2251.000000	85.134764 
2250.000000	85.132337 
2249.000000	85.129033 
2248.000000	85.129290 
2247.000000	85.135622 
2246.000000	85.143141 
2245.000000	85.143455 
2244.000000	85.134990 
2243.000000	85.123863 
2242.000000	85.115402 
2241.000000	85.110218 
2240.000000	85.108186 
2239.000000	85.110046 
2238.000000	85.114101 
2237.000000	85.116389 
2236.000000	85.115417 
2235.000000	85.113289 
2234.000000	85.112552 
2233.000000	85.115310 
2232.000000	85.123320 
2231.000000	85.134042 
2230.000000	85.138785 
2229.000000	85.131356 
2228.000000	85.117177 
2227.000000	85.107662 
2226.000000	85.106935 
2225.000000	85.110506 
2224.000000	85.115381 
2223.000000	85.123341 
2222.000000	85.134025 
2221.000000	85.142301 
2220.000000	85.144344 
2219.000000	85.141104 
2218.000000	85.135327 
2217.000000	85.130115 
2216.000000	85.129547 
2215.000000	85.134834 
2214.000000	85.140663 
2213.000000	85.140958 
2212.000000	85.137165 
2211.000000	85.135054 
2210.000000	85.135007 
2209.000000	85.132553 
2208.000000	85.127370 
2207.000000	85.124415 
2206.000000	85.126188 
2205.000000	85.130217 
2204.000000	85.133766 
2203.000000	85.135094 
2202.000000	85.131399 
2201.000000	85.122339 
2200.000000	85.114571 
2199.000000	85.115684 
2198.000000	85.124300 
2197.000000	85.132319 
2196.000000	85.135770 
2195.000000	85.136784 
2194.000000	85.136250 
2193.000000	85.132282 
2192.000000	85.125391 
2191.000000	85.118377 
2190.000000	85.111851 
2189.000000	85.106078 
2188.000000	85.105330 
2187.000000	85.113165 
2186.000000	85.125406 
2185.000000	85.135532 
2184.000000	85.145815 
2183.000000	85.164754 
2182.000000	85.193004 
2181.000000	85.218890 
2180.000000	85.228735 
2179.000000	85.217624 
2178.000000	85.192759 
2177.000000	85.171988 
2176.000000	85.173681 
2175.000000	85.198492 
2174.000000	85.224828 
2173.000000	85.229832 
2172.000000	85.211038 
2171.000000	85.181594 
2170.000000	85.151290 
2169.000000	85.122270 
2168.000000	85.097119 
2167.000000	85.079431 
2166.000000	85.068047 
2165.000000	85.058398 
2164.000000	85.047431 
2163.000000	85.033295 
2162.000000	85.021358 
2161.000000	85.039806 
2160.000000	85.132393 
2159.000000	85.309929 
2158.000000	85.514460 
2157.000000	85.661797 
2156.000000	85.716366 
2155.000000	85.701082 
2154.000000	85.651248 
2153.000000	85.589762 
2152.000000	85.533725 
2151.000000	85.495299 
2150.000000	85.474221 
2149.000000	85.462794 
2148.000000	85.458591 
2147.000000	85.462471 
2146.000000	85.468206 
2145.000000	85.466811 
2144.000000	85.459051 
2143.000000	85.452410 
2142.000000	85.448558 
2141.000000	85.443900 
2140.000000	85.438983 
2139.000000	85.437086 
2138.000000	85.437512 
2137.000000	85.440797 
2136.000000	85.455668 
2135.000000	85.488098 
2134.000000	85.526058 
2133.000000	85.548082 
2132.000000	85.546254 
2131.000000	85.530223 
2130.000000	85.510549 
2129.000000	85.489813 
2128.000000	85.468569 
2127.000000	85.448931 
2126.000000	85.431032 
2125.000000	85.413443 
2124.000000	85.397669 
2123.000000	85.385911 
2122.000000	85.375655 
2121.000000	85.363124 
2120.000000	85.350539 
2119.000000	85.342656 
2118.000000	85.337423 
2117.000000	85.327827 
2116.000000	85.312590 
2115.000000	85.297723 
2114.000000	85.287653 
2113.000000	85.282062 
2112.000000	85.281023 
2111.000000	85.285376 
2110.000000	85.291186 
2109.000000	85.291210 
2108.000000	85.283790 
2107.000000	85.274766 
2106.000000	85.269717 
2105.000000	85.269217 
2104.000000	85.271412 
2103.000000	85.274105 
2102.000000	85.274770 
2101.000000	85.273863 
2100.000000	85.276549 
2099.000000	85.286220 
2098.000000	85.299273 
2097.000000	85.311844 
2096.000000	85.328126 
2095.000000	85.352617 
2094.000000	85.377525 
2093.000000	85.388884 
2092.000000	85.383684 
2091.000000	85.371260 
2090.000000	85.358647 
2089.000000	85.344770 
2088.000000	85.328951 
2087.000000	85.315150 
2086.000000	85.305584 
2085.000000	85.297775 
2084.000000	85.289839 
2083.000000	85.282903 
2082.000000	85.277705 
2081.000000	85.274763 
2080.000000	85.277263 
2079.000000	85.287275 
2078.000000	85.299716 
2077.000000	85.306334 
2076.000000	85.305851 
2075.000000	85.303018 
2074.000000	85.300317 
2073.000000	85.298284 
2072.000000	85.299998 
2071.000000	85.307737 
2070.000000	85.316641 
2069.000000	85.320860 
2068.000000	85.323630 
2067.000000	85.331280 
2066.000000	85.340542 
2065.000000	85.342906 
2064.000000	85.339660 
2063.000000	85.339261 
2062.000000	85.342181 
2061.000000	85.342343 
2060.000000	85.341295 
2059.000000	85.346217 
2058.000000	85.355062 
2057.000000	85.359036 
2056.000000	85.359170 
2055.000000	85.362999 
2054.000000	85.363409 
2053.000000	85.340737 
2052.000000	85.293150 
2051.000000	85.249216 
2050.000000	85.239873 
2049.000000	85.267017 
2048.000000	85.307385 
2047.000000	85.339605 
2046.000000	85.356812 
2045.000000	85.361156 
2044.000000	85.360148 
2043.000000	85.363072 
2042.000000	85.372060 
2041.000000	85.380653 
2040.000000	85.384721 
2039.000000	85.386979 
2038.000000	85.388641 
2037.000000	85.388081 
2036.000000	85.390759 
2035.000000	85.407754 
2034.000000	85.438640 
2033.000000	85.467804 
2032.000000	85.484116 
2031.000000	85.492097 
2030.000000	85.499939 
2029.000000	85.508676 
2028.000000	85.517995 
2027.000000	85.530583 
2026.000000	85.545123 
2025.000000	85.556292 
2024.000000	85.563649 
2023.000000	85.572446 
2022.000000	85.582836 
2021.000000	85.588632 
2020.000000	85.588903 
2019.000000	85.588314 
2018.000000	85.586126 
2017.000000	85.577409 
2016.000000	85.566005 
2015.000000	85.561490 
2014.000000	85.563326 
2013.000000	85.562154 
2012.000000	85.556271 
2011.000000	85.553940 
2010.000000	85.560541 
2009.000000	85.576104 
2008.000000	85.603525 
2007.000000	85.643005 
2006.000000	85.678710 
2005.000000	85.689485 
2004.000000	85.672791 
2003.000000	85.645622 
2002.000000	85.620842 
2001.000000	85.598681 
2000.000000	85.579586 
1999.000000	85.566025 
1998.000000	85.556585 
1997.000000	85.547429 
1996.000000	85.540146 
1995.000000	85.539255 
1994.000000	85.541201 
1993.000000	85.536148 
1992.000000	85.522796 
1991.000000	85.511177 
1990.000000	85.505438 
1989.000000	85.498538 
1988.000000	85.486672 
1987.000000	85.475008 
1986.000000	85.467419 
1985.000000	85.462427 
1984.000000	85.459179 
1983.000000	85.456747 
1982.000000	85.446719 
1981.000000	85.422536 
1980.000000	85.398694 
1979.000000	85.404103 
1978.000000	85.453322 
1977.000000	85.529607 
1976.000000	85.604043 
1975.000000	85.661823 
1974.000000	85.701122 
1973.000000	85.722033 
1972.000000	85.727384 
1971.000000	85.725200 
1970.000000	85.721696 
1969.000000	85.717586 
1968.000000	85.713499 
1967.000000	85.712313 
1966.000000	85.713444 
1965.000000	85.712580 
1964.000000	85.710622 
1963.000000	85.714933 
1962.000000	85.728486 
1961.000000	85.745454 
1960.000000	85.758920 
1959.000000	85.766235 
1958.000000	85.766249 
1957.000000	85.758491 
1956.000000	85.747021 
1955.000000	85.736534 
1954.000000	85.726169 
1953.000000	85.713209 
1952.000000	85.701309 
1951.000000	85.698340 
1950.000000	85.701985 
1949.000000	85.702639 
1948.000000	85.699914 
1947.000000	85.701805 
1946.000000	85.711112 
1945.000000	85.722343 
1944.000000	85.731765 
1943.000000	85.739053 
1942.000000	85.741244 
1941.000000	85.736217 
1940.000000	85.729093 
1939.000000	85.729364 
1938.000000	85.740100 
1937.000000	85.753163 
1936.000000	85.759999 
1935.000000	85.760203 
1934.000000	85.757676 
1933.000000	85.754646 
1932.000000	85.754033 
1931.000000	85.761380 
1930.000000	85.773349 
1929.000000	85.783742 
1928.000000	85.794250 
1927.000000	85.809753 
1926.000000	85.828128 
1925.000000	85.837153 
1924.000000	85.835018 
1923.000000	85.830903 
1922.000000	85.827311 
1921.000000	85.818885 
1920.000000	85.807519 
1919.000000	85.807643 
1918.000000	85.824218 
1917.000000	85.843257 
1916.000000	85.851571 
1915.000000	85.851024 
1914.000000	85.853686 
1913.000000	85.865554 
1912.000000	85.882313 
1911.000000	85.899199 
1910.000000	85.911248 
1909.000000	85.917145 
1908.000000	85.920163 
1907.000000	85.924929 
1906.000000	85.933982 
1905.000000	85.943323 
1904.000000	85.954459 
1903.000000	85.970809 
1902.000000	85.986082 
1901.000000	85.994592 
1900.000000	85.999140 
1899.000000	86.006197 
1898.000000	86.016813 
1897.000000	86.024930 
1896.000000	86.030888 
1895.000000	86.041431 
1894.000000	86.055514 
1893.000000	86.065223 
1892.000000	86.069423 
1891.000000	86.076763 
1890.000000	86.090045 
1889.000000	86.102506 
1888.000000	86.111078 
1887.000000	86.117485 
1886.000000	86.122962 
1885.000000	86.127928 
1884.000000	86.133491 
1883.000000	86.140703 
1882.000000	86.146389 
1881.000000	86.149053 
1880.000000	86.152247 
1879.000000	86.159051 
1878.000000	86.169642 
1877.000000	86.179842 
1876.000000	86.188426 
1875.000000	86.201864 
1874.000000	86.220958 
1873.000000	86.236635 
1872.000000	86.245122 
1871.000000	86.255785 
1870.000000	86.275743 
1869.000000	86.294180 
1868.000000	86.299920 
1867.000000	86.296616 
1866.000000	86.290462 
1865.000000	86.287497 
1864.000000	86.294754 
1863.000000	86.311756 
1862.000000	86.328996 
1861.000000	86.339084 
1860.000000	86.345181 
1859.000000	86.353269 
1858.000000	86.362677 
1857.000000	86.371009 
1856.000000	86.380873 
1855.000000	86.396887 
1854.000000	86.415442 
1853.000000	86.432370 
1852.000000	86.449208 
1851.000000	86.464976 
1850.000000	86.483014 
1849.000000	86.503103 
1848.000000	86.516437 
1847.000000	86.516456 
1846.000000	86.512094 
1845.000000	86.521705 
1844.000000	86.553071 
1843.000000	86.593467 
1842.000000	86.611342 
1841.000000	86.599538 
1840.000000	86.588315 
1839.000000	86.601034 
1838.000000	86.628270 
1837.000000	86.645260 
1836.000000	86.650218 
1835.000000	86.658578 
1834.000000	86.672199 
1833.000000	86.682743 
1832.000000	86.690115 
1831.000000	86.704451 
1830.000000	86.730013 
1829.000000	86.752883 
1828.000000	86.757723 
1827.000000	86.750135 
1826.000000	86.753561 
1825.000000	86.774338 
1824.000000	86.794381 
1823.000000	86.802042 
1822.000000	86.802808 
1821.000000	86.810250 
1820.000000	86.830303 
1819.000000	86.862126 
1818.000000	86.900354 
1817.000000	86.930967 
1816.000000	86.949017 
1815.000000	86.960022 
1814.000000	86.970239 
1813.000000	86.981803 
1812.000000	86.991832 
1811.000000	87.004726 
1810.000000	87.020206 
1809.000000	87.029172 
1808.000000	87.033171 
1807.000000	87.042411 
1806.000000	87.060654 
1805.000000	87.081309 
1804.000000	87.102724 
1803.000000	87.128068 
1802.000000	87.155222 
1801.000000	87.175293 
1800.000000	87.182268 
1799.000000	87.190164 
1798.000000	87.209038 
1797.000000	87.229645 
1796.000000	87.240589 
1795.000000	87.242507 
1794.000000	87.252669 
1793.000000	87.281956 
1792.000000	87.317309 
1791.000000	87.345683 
1790.000000	87.358905 
1789.000000	87.355280 
1788.000000	87.350103 
1787.000000	87.360325 
1786.000000	87.388589 
1785.000000	87.422393 
1784.000000	87.451019 
1783.000000	87.466608 
1782.000000	87.474223 
1781.000000	87.489978 
1780.000000	87.508995 
1779.000000	87.526164 
1778.000000	87.543800 
1777.000000	87.565165 
1776.000000	87.582490 
1775.000000	87.583247 
1774.000000	87.588543 
1773.000000	87.627390 
1772.000000	87.681496 
1771.000000	87.711779 
1770.000000	87.710866 
1769.000000	87.702509 
1768.000000	87.716983 
1767.000000	87.752244 
1766.000000	87.775904 
1765.000000	87.768120 
1764.000000	87.747286 
1763.000000	87.743459 
1762.000000	87.761486 
1761.000000	87.776633 
1760.000000	87.753546 
1759.000000	87.686793 
1758.000000	87.599175 
1757.000000	87.510963 
1756.000000	87.408567 
1755.000000	87.265060 
1754.000000	87.080172 
1753.000000	86.873987 
1752.000000	86.641334 
1751.000000	86.349583 
1750.000000	85.984131 
1749.000000	85.551150 
1748.000000	85.072159 
1747.000000	84.571228 
1746.000000	84.063177 
1745.000000	83.530753 
1744.000000	82.939006 
1743.000000	82.292436 
1742.000000	81.613270 
1741.000000	80.877206 
1740.000000	80.045679 
1739.000000	79.176893 
1738.000000	78.391806 
1737.000000	77.707677 
1736.000000	77.029104 
1735.000000	76.177932 
1734.000000	75.089163 
1733.000000	74.054199 
1732.000000	73.270475 
1731.000000	72.608740 
1730.000000	71.955249 
1729.000000	71.308360 
1728.000000	70.718350 
1727.000000	70.210080 
1726.000000	69.770644 
1725.000000	69.375997 
1724.000000	69.015020 
1723.000000	68.717648 
1722.000000	68.513499 
1721.000000	68.404142 
1720.000000	68.375323 
1719.000000	68.404767 
1718.000000	68.453645 
1717.000000	68.514551 
1716.000000	68.638128 
1715.000000	68.840041 
1714.000000	69.087702 
1713.000000	69.356115 
1712.000000	69.642541 
1711.000000	69.948447 
1710.000000	70.260670 
1709.000000	70.562453 
1708.000000	70.846533 
1707.000000	71.121486 
1706.000000	71.387430 
1705.000000	71.621094 
1704.000000	71.814889 
1703.000000	71.982023 
1702.000000	72.157834 
1701.000000	72.340390 
1700.000000	72.494921 
1699.000000	72.623177 
1698.000000	72.697384 
1697.000000	72.711887 
1696.000000	72.717849 
1695.000000	72.776672 
1694.000000	72.874684 
1693.000000	72.935459 
1692.000000	72.965533 
1691.000000	73.003800 
1690.000000	73.039631 
1689.000000	73.052406 
1688.000000	73.049442 
1687.000000	73.059813 
1686.000000	73.111207 
1685.000000	73.160415 
1684.000000	73.158848 
1683.000000	73.193445 
1682.000000	73.306256 
1681.000000	73.450706 
1680.000000	73.626488 
1679.000000	73.826280 
1678.000000	74.033007 
1677.000000	74.252697 
1676.000000	74.501337 
1675.000000	74.766345 
1674.000000	75.012512 
1673.000000	75.215473 
1672.000000	75.384488 
1671.000000	75.546732 
1670.000000	75.689471 
1669.000000	75.806769 
1668.000000	75.920604 
1667.000000	76.028685 
1666.000000	76.123688 
1665.000000	76.213885 
1664.000000	76.303483 
1663.000000	76.374871 
1662.000000	76.418334 
1661.000000	76.460578 
1660.000000	76.511914 
1659.000000	76.570987 
1658.000000	76.637395 
1657.000000	76.707524 
1656.000000	76.764915 
1655.000000	76.820891 
1654.000000	76.827415 
1653.000000	76.729574 
1652.000000	76.731816 
1651.000000	76.833743 
1650.000000	76.867956 
1649.000000	76.883265 
1648.000000	76.895605 
1647.000000	76.852439 
1646.000000	76.783579 
1645.000000	76.770035 
1644.000000	76.799540 
1643.000000	76.826287 
1642.000000	76.844878 
1641.000000	76.871269 
1640.000000	76.909735 
1639.000000	76.950850 
1638.000000	76.985133 
1637.000000	77.001710 
1636.000000	76.980415 
1635.000000	76.960817 
1634.000000	77.008806 
1633.000000	77.081506 
1632.000000	77.151185 
1631.000000	77.233235 
1630.000000	77.326453 
1629.000000	77.422377 
1628.000000	77.517228 
1627.000000	77.610261 
1626.000000	77.702895 
1625.000000	77.806664 
1624.000000	77.927244 
1623.000000	78.052541 
1622.000000	78.171637 
1621.000000	78.285279 
1620.000000	78.388389 
1619.000000	78.484832 
1618.000000	78.577079 
1617.000000	78.653752 
1616.000000	78.716872 
1615.000000	78.763901 
1614.000000	78.775091 
1613.000000	78.763349 
1612.000000	78.758671 
1611.000000	78.760134 
1610.000000	78.755608 
1609.000000	78.756574 
1608.000000	78.786012 
1607.000000	78.846746 
1606.000000	78.928245 
1605.000000	79.029237 
1604.000000	79.140222 
1603.000000	79.242107 
1602.000000	79.323464 
1601.000000	79.390942 
1600.000000	79.459672 
1599.000000	79.536735 
1598.000000	79.625666 
1597.000000	79.731835 
1596.000000	79.855474 
1595.000000	79.984091 
1594.000000	80.101843 
1593.000000	80.206264 
1592.000000	80.300010 
1591.000000	80.374279 
1590.000000	80.417361 
1589.000000	80.435498 
1588.000000	80.443463 
1587.000000	80.443152 
1586.000000	80.425887 
1585.000000	80.398081 
1584.000000	80.370571 
1583.000000	80.337994 
1582.000000	80.305337 
1581.000000	80.290673 
1580.000000	80.298047 
1579.000000	80.315051 
1578.000000	80.346138 
1577.000000	80.401185 
1576.000000	80.480036 
1575.000000	80.568309 
1574.000000	80.626999 
1573.000000	80.643563 
1572.000000	80.652633 
1571.000000	80.668233 
1570.000000	80.653980 
1569.000000	80.604172 
1568.000000	80.558945 
1567.000000	80.521433 
1566.000000	80.480024 
1565.000000	80.437164 
1564.000000	80.391746 
1563.000000	80.334290 
1562.000000	80.276174 
1561.000000	80.260276 
1560.000000	80.272131 
1559.000000	80.126446 
1558.000000	79.889564 
1557.000000	79.793450 
1556.000000	79.732683 
1555.000000	79.658521 
1554.000000	79.591570 
1553.000000	79.540105 
1552.000000	79.490379 
1551.000000	79.431717 
1550.000000	79.360209 
1549.000000	79.281956 
1548.000000	79.224994 
1547.000000	79.197024 
1546.000000	79.187854 
1545.000000	79.169535 
1544.000000	79.121643 
1543.000000	79.061771 
1542.000000	79.010841 
1541.000000	78.931638 
1540.000000	78.788086 
1539.000000	78.677217 
1538.000000	78.661910 
1537.000000	78.648537 
1536.000000	78.617244 
1535.000000	78.588710 
1534.000000	78.532306 
1533.000000	78.424402 
1532.000000	78.314780 
1531.000000	78.244699 
1530.000000	78.195435 
1529.000000	78.140751 
1528.000000	78.068947 
1527.000000	77.976518 
1526.000000	77.870608 
1525.000000	77.769983 
1524.000000	77.685586 
1523.000000	77.612328 
1522.000000	77.513547 
1521.000000	77.382966 
1520.000000	77.294292 
1519.000000	77.260468 
1518.000000	77.238843 
1517.000000	77.203309 
1516.000000	77.166148 
1515.000000	77.160966 
1514.000000	77.186077 
1513.000000	77.230297 
1512.000000	77.291250 
1511.000000	77.365376 
1510.000000	77.441695 
1509.000000	77.525023 
1508.000000	77.624413 
1507.000000	77.722606 
1506.000000	77.871883 
1505.000000	78.131178 
1504.000000	78.388896 
1503.000000	78.609415 
1502.000000	78.839047 
1501.000000	79.087610 
1500.000000	79.337265 
1499.000000	79.575000 
1498.000000	79.803153 
1497.000000	80.009504 
1496.000000	80.189061 
1495.000000	80.351573 
1494.000000	80.484874 
1493.000000	80.586755 
1492.000000	80.684344 
1491.000000	80.792431 
1490.000000	80.871946 
1489.000000	80.879399 
1488.000000	80.842195 
1487.000000	80.808796 
1486.000000	80.768809 
1485.000000	80.696883 
1484.000000	80.586817 
1483.000000	80.431587 
1482.000000	80.215868 
1481.000000	79.927739 
1480.000000	79.601878 
1479.000000	79.280203 
1478.000000	78.964671 
1477.000000	78.632217 
1476.000000	78.294937 
1475.000000	77.993094 
1474.000000	77.730836 
1473.000000	77.474913 
1472.000000	77.233119 
1471.000000	77.065805 
1470.000000	76.964672 
1469.000000	76.885743 
1468.000000	76.816008 
1467.000000	76.751588 
1466.000000	76.676253 
1465.000000	76.585401 
1464.000000	76.507726 
1463.000000	76.481810 
1462.000000	76.507713 
1461.000000	76.567930 
1460.000000	76.654108 
1459.000000	76.759867 
1458.000000	76.871370 
1457.000000	76.975577 
1456.000000	77.105618 
1455.000000	77.250858 
1454.000000	77.368428 
1453.000000	77.478971 
1452.000000	77.595008 
1451.000000	77.703270 
1450.000000	77.788301 
1449.000000	77.846627 
1448.000000	77.886728 
1447.000000	77.922154 
1446.000000	77.969183 
1445.000000	78.037874 
1444.000000	78.113838 
1443.000000	78.186174 
1442.000000	78.246766 
1441.000000	78.286985 
1440.000000	78.301215 
1439.000000	78.302356 
1438.000000	78.313516 
1437.000000	78.341433 
1436.000000	78.393910 
1435.000000	78.481073 
1434.000000	78.594538 
1433.000000	78.731839 
1432.000000	78.896230 
1431.000000	79.074558 
1430.000000	79.251667 
1429.000000	79.418654 
1428.000000	79.572334 
1427.000000	79.705552 
1426.000000	79.819434 
1425.000000	79.919711 
1424.000000	79.983432 
1423.000000	80.001795 
1422.000000	80.007387 
1421.000000	80.042414 
1420.000000	80.115492 
1419.000000	80.192773 
1418.000000	80.252391 
1417.000000	80.296976 
1416.000000	80.329300 
1415.000000	80.359832 
1414.000000	80.400877 
1413.000000	80.449391 
1412.000000	80.487219 
1411.000000	80.505624 
1410.000000	80.514926 
1409.000000	80.521851 
1408.000000	80.522589 
1407.000000	80.509794 
1406.000000	80.478602 
1405.000000	80.429880 
1404.000000	80.363095 
1403.000000	80.292845 
1402.000000	80.241849 
1401.000000	80.223857 
1400.000000	80.233747 
1399.000000	80.252602 
1398.000000	80.272763 
1397.000000	80.294342 
1396.000000	80.310084 
1395.000000	80.304740 
1394.000000	80.279974 
1393.000000	80.248724 
1392.000000	80.203290 
1391.000000	80.137331 
1390.000000	80.057785 
1389.000000	79.965573 
1388.000000	79.843909 
1387.000000	79.681005 
1386.000000	79.494208 
1385.000000	79.304385 
1384.000000	79.106765 
1383.000000	78.892264 
1382.000000	78.662917 
1381.000000	78.423551 
1380.000000	78.176586 
1379.000000	77.928163 
1378.000000	77.695990 
1377.000000	77.495131 
1376.000000	77.325184 
1375.000000	77.178750 
1374.000000	77.065187 
1373.000000	77.011404 
1372.000000	77.031612 
1371.000000	77.119548 
1370.000000	77.264686 
1369.000000	77.455800 
1368.000000	77.673993 
1367.000000	77.906178 
1366.000000	78.151431 
1365.000000	78.414757 
1364.000000	78.696022 
1363.000000	78.981270 
1362.000000	79.250194 
1361.000000	79.493677 
1360.000000	79.714878 
1359.000000	79.919017 
1358.000000	80.108412 
1357.000000	80.281889 
1356.000000	80.436594 
1355.000000	80.571472 
1354.000000	80.688944 
1353.000000	80.792186 
1352.000000	80.884881 
1351.000000	80.968240 
1350.000000	81.040203 
1349.000000	81.101855 
1348.000000	81.153186 
1347.000000	81.195505 
1346.000000	81.230813 
1345.000000	81.262453 
1344.000000	81.293167 
1343.000000	81.325286 
1342.000000	81.359608 
1341.000000	81.391025 
1340.000000	81.405805 
1339.000000	81.392760 
1338.000000	81.356934 
1337.000000	81.312820 
1336.000000	81.271305 
1335.000000	81.239381 
1334.000000	81.223004 
1333.000000	81.224640 
1332.000000	81.239649 
1331.000000	81.257431 
1330.000000	81.266418 
1329.000000	81.257180 
1328.000000	81.222056 
1327.000000	81.155079 
1326.000000	81.052796 
1325.000000	80.914543 
1324.000000	80.740655 
1323.000000	80.535786 
1322.000000	80.307761 
1321.000000	80.060363 
1320.000000	79.791121 
1319.000000	79.500051 
1318.000000	79.195471 
1317.000000	78.886310 
1316.000000	78.573539 
1315.000000	78.252724 
1314.000000	77.920335 
1313.000000	77.576463 
1312.000000	77.227205 
1311.000000	76.883279 
1310.000000	76.551813 
1309.000000	76.231584 
1308.000000	75.921471 
1307.000000	75.628519 
1306.000000	75.360925 
1305.000000	75.118674 
1304.000000	74.897370 
1303.000000	74.698030 
1302.000000	74.522915 
1301.000000	74.367618 
1300.000000	74.225537 
1299.000000	74.096271 
1298.000000	73.980991 
1297.000000	73.874035 
1296.000000	73.766570 
1295.000000	73.653240 
1294.000000	73.528639 
1293.000000	73.382623 
1292.000000	73.208018 
1291.000000	73.008909 
1290.000000	72.795231 
1289.000000	72.575747 
1288.000000	72.364323 
1287.000000	72.184739 
1286.000000	72.057401 
1285.000000	71.985700 
1284.000000	71.962755 
1283.000000	71.983018 
1282.000000	72.038858 
1281.000000	72.114663 
1280.000000	72.193332 
1279.000000	72.263338 
1278.000000	72.315112 
1277.000000	72.338440 
1276.000000	72.330620 
1275.000000	72.300015 
1274.000000	72.255201 
1273.000000	72.196042 
1272.000000	72.121256 
1271.000000	72.037215 
1270.000000	71.951414 
1269.000000	71.863765 
1268.000000	71.771875 
1267.000000	71.677936 
1266.000000	71.582916 
1265.000000	71.480825 
1264.000000	71.366698 
1263.000000	71.243069 
1262.000000	71.111352 
1261.000000	70.965264 
1260.000000	70.800910 
1259.000000	70.624918 
1258.000000	70.444050 
1257.000000	70.254649 
1256.000000	70.051500 
1255.000000	69.837800 
1254.000000	69.617418 
1253.000000	69.385958 
1252.000000	69.139048 
1251.000000	68.880569 
1250.000000	68.613677 
1249.000000	68.333178 
1248.000000	68.036232 
1247.000000	67.730463 
1246.000000	67.422015 
1245.000000	67.106740 
1244.000000	66.784010 
1243.000000	66.466522 
1242.000000	66.164746 
1241.000000	65.874392 
1240.000000	65.590524 
1239.000000	65.319324 
1238.000000	65.064122 
1237.000000	64.815496 
1236.000000	64.568401 
1235.000000	64.333842 
1234.000000	64.121147 
1233.000000	63.924983 
1232.000000	63.742863 
1231.000000	63.588597 
1230.000000	63.475430 
1229.000000	63.403300 
1228.000000	63.375508 
1227.000000	63.409029 
1226.000000	63.514655 
1225.000000	63.684549 
1224.000000	63.910725 
1223.000000	64.196638 
1222.000000	64.539568 
1221.000000	64.921105 
1220.000000	65.326002 
1219.000000	65.752668 
1218.000000	66.196288 
1217.000000	66.639344 
1216.000000	67.068127 
1215.000000	67.482794 
1214.000000	67.883447 
1213.000000	68.261449 
1212.000000	68.612387 
1211.000000	68.944219 
1210.000000	69.264580 
1209.000000	69.571570 
1208.000000	69.863400 
1207.000000	70.145276 
1206.000000	70.420161 
1205.000000	70.683353 
1204.000000	70.932325 
1203.000000	71.171949 
1202.000000	71.404820 
1201.000000	71.626299 
1200.000000	71.834237 
1199.000000	72.033912 
1198.000000	72.228268 
1197.000000	72.412509 
1196.000000	72.584022 
1195.000000	72.748752 
1194.000000	72.911748 
1193.000000	73.069248 
1192.000000	73.215920 
1191.000000	73.352633 
1190.000000	73.481265 
1189.000000	73.598675 
1188.000000	73.702097 
1187.000000	73.794932 
1186.000000	73.881464 
1185.000000	73.960898 
1184.000000	74.031694 
1183.000000	74.096487 
1182.000000	74.157389 
1181.000000	74.211209 
1180.000000	74.254547 
1179.000000	74.288574 
1178.000000	74.312964 
1177.000000	74.320030 
1176.000000	74.300946 
1175.000000	74.253763 
1174.000000	74.180527 
1173.000000	74.080663 
1172.000000	73.952553 
1171.000000	73.798654 
1170.000000	73.624714 
1169.000000	73.438413 
1168.000000	73.254453 
1167.000000	73.096221 
1166.000000	72.985400 
1165.000000	72.932416 
1164.000000	72.939143 
1163.000000	73.001699 
1162.000000	73.105013 
1161.000000	73.224535 
1160.000000	73.340678 
1159.000000	73.446153 
1158.000000	73.536923 
1157.000000	73.605124 
1156.000000	73.645666 
1155.000000	73.661874 
1154.000000	73.658410 
1153.000000	73.633964 
1152.000000	73.584909 
1151.000000	73.508886 
1150.000000	73.399532 
1149.000000	73.245106 
1148.000000	73.039101 
1147.000000	72.786642 
1146.000000	72.495334 
1145.000000	72.167330 
1144.000000	71.807215 
1143.000000	71.429333 
1142.000000	71.048273 
1141.000000	70.669847 
1140.000000	70.299936 
1139.000000	69.951964 
1138.000000	69.635598 
1137.000000	69.348377 
1136.000000	69.087698 
1135.000000	68.858845 
1134.000000	68.661789 
1133.000000	68.483935 
1132.000000	68.315990 
1131.000000	68.160998 
1130.000000	68.018074 
1129.000000	67.872529 
1128.000000	67.713459 
1127.000000	67.546998 
1126.000000	67.381348 
1125.000000	67.213023 
1124.000000	67.039010 
1123.000000	66.868482 
1122.000000	66.712719 
1121.000000	66.579552 
1120.000000	66.487340 
1119.000000	66.464681 
1118.000000	66.522040 
1117.000000	66.639139 
1116.000000	66.789832 
1115.000000	66.961015 
1114.000000	67.139606 
1113.000000	67.303621 
1112.000000	67.439361 
1111.000000	67.550387 
1110.000000	67.638530 
1109.000000	67.691951 
1108.000000	67.701716 
1107.000000	67.673239 
1106.000000	67.609997 
1105.000000	67.502585 
1104.000000	67.345410 
1103.000000	67.148758 
1102.000000	66.923026 
1101.000000	66.667532 
1100.000000	66.387472 
1099.000000	66.105660 
1098.000000	65.844431 
1097.000000	65.610962 
1096.000000	65.414294 
1095.000000	65.275669 
1094.000000	65.206073 
1093.000000	65.192696 
1092.000000	65.222511 
1091.000000	65.299156 
1090.000000	65.422643 
1089.000000	65.572172 
1088.000000	65.721567 
1087.000000	65.852421 
1086.000000	65.941019 
1085.000000	65.952718 
1084.000000	65.863444 
1083.000000	65.672262 
1082.000000	65.383945 
1081.000000	64.997810 
1080.000000	64.526371 
1079.000000	64.005607 
1078.000000	63.469995 
1077.000000	62.934565 
1076.000000	62.416033 
1075.000000	61.948140 
1074.000000	61.556214 
1073.000000	61.237766 
1072.000000	60.985355 
1071.000000	60.804131 
1070.000000	60.690968 
1069.000000	60.623358 
1068.000000	60.585502 
1067.000000	60.579674 
1066.000000	60.598640 
1065.000000	60.614921 
1064.000000	60.611189 
1063.000000	60.594225 
1062.000000	60.566207 
1061.000000	60.508916 
1060.000000	60.409096 
1059.000000	60.272186 
1058.000000	60.096308 
1057.000000	59.858982 
1056.000000	59.545320 
1055.000000	59.164464 
1054.000000	58.723119 
1053.000000	58.209369 
1052.000000	57.621970 
1051.000000	56.988965 
1050.000000	56.334475 
1049.000000	55.655572 
1048.000000	54.954345 
1047.000000	54.257639 
1046.000000	53.581519 
1045.000000	52.910775 
1044.000000	52.233753 
1043.000000	51.563163 
1042.000000	50.904566 
1041.000000	50.239803 
1040.000000	49.561848 
1039.000000	48.891039 
1038.000000	48.236677 
1037.000000	47.578679 
1036.000000	46.906570 
1035.000000	46.237847 
1034.000000	45.577514 
1033.000000	44.899683 
1032.000000	44.191554 
1031.000000	43.474441 
1030.000000	42.757513 
1029.000000	42.013410 
1028.000000	41.224289 
1027.000000	40.408131 
1026.000000	39.574776 
1025.000000	38.701248 
1024.000000	37.776621 
1023.000000	36.826582 
1022.000000	35.869096 
1021.000000	34.892716 
1020.000000	33.905473 
1019.000000	32.956634 
1018.000000	32.080546 
1017.000000	31.267950 
1016.000000	30.519534 
1015.000000	29.872173 
1014.000000	29.342220 
1013.000000	28.899893 
1012.000000	28.529791 
1011.000000	28.259860 
1010.000000	28.102535 
1009.000000	28.024830 
1008.000000	28.004434 
1007.000000	28.058103 
1006.000000	28.187209 
1005.000000	28.352035 
1004.000000	28.528149 
1003.000000	28.733048 
1002.000000	28.972580 
1001.000000	29.217649 
1000.000000	29.457437 
999.000000	 29.718636 
998.000000	 30.008346 
997.000000	 30.293116 
996.000000	 30.556959 
995.000000	 30.825940 
994.000000	 31.113525 
993.000000	 31.395138 
992.000000	 31.659497 
991.000000	 31.931941 
990.000000	 32.223405 
989.000000	 32.509086 
988.000000	 32.780299 
987.000000	 33.064561 
986.000000	 33.372225 
985.000000	 33.675686 
984.000000	 33.963521 
983.000000	 34.263837 
982.000000	 34.591655 
981.000000	 34.922774 
980.000000	 35.242209 
979.000000	 35.570176 
978.000000	 35.917527 
977.000000	 36.262690 
976.000000	 36.595330 
975.000000	 36.936757 
974.000000	 37.295792 
973.000000	 37.649553 
972.000000	 37.988070 
971.000000	 38.333642 
970.000000	 38.697055 
969.000000	 39.058341 
968.000000	 39.409315 
967.000000	 39.772191 
966.000000	 40.157494 
965.000000	 40.545514 
964.000000	 40.927569 
963.000000	 41.323514 
962.000000	 41.740129 
961.000000	 42.153698 
960.000000	 42.551597 
959.000000	 42.950697 
958.000000	 43.357902 
957.000000	 43.752400 
956.000000	 44.123854 
955.000000	 44.489587 
954.000000	 44.857580 
953.000000	 45.210566 
952.000000	 45.543785 
951.000000	 45.881585 
950.000000	 46.239114 
949.000000	 46.603445 
948.000000	 46.968633 
947.000000	 47.352557 
946.000000	 47.761773 
945.000000	 48.174280 
944.000000	 48.573515 
943.000000	 48.967051 
942.000000	 49.357995 
941.000000	 49.730994 
940.000000	 50.080933 
939.000000	 50.423879 
938.000000	 50.765589 
937.000000	 51.090073 
936.000000	 51.392438 
935.000000	 51.691363 
934.000000	 51.995634 
933.000000	 52.289778 
932.000000	 52.566462 
931.000000	 52.841980 
930.000000	 53.125161 
929.000000	 53.400788 
928.000000	 53.658337 
927.000000	 53.908365 
926.000000	 54.156245 
925.000000	 54.387805 
924.000000	 54.595236 
923.000000	 54.789453 
922.000000	 54.972470 
921.000000	 55.124982 
920.000000	 55.236089 
919.000000	 55.318868 
918.000000	 55.382080 
917.000000	 55.412734 
916.000000	 55.401959 
915.000000	 55.362493 
914.000000	 55.304311 
913.000000	 55.217550 
912.000000	 55.096366 
911.000000	 54.955946 
910.000000	 54.808930 
909.000000	 54.648174 
908.000000	 54.468731 
907.000000	 54.282265 
906.000000	 54.093980 
905.000000	 53.890819 
904.000000	 53.668583 
903.000000	 53.446120 
902.000000	 53.239422 
901.000000	 53.049445 
900.000000	 52.888789 
899.000000	 52.788373 
898.000000	 52.759694 
897.000000	 52.780786 
896.000000	 52.836267 
895.000000	 52.939673 
894.000000	 53.100526 
893.000000	 53.302195 
892.000000	 53.529389 
891.000000	 53.785908 
890.000000	 54.069495 
889.000000	 54.361005 
888.000000	 54.654214 
887.000000	 54.965514 
886.000000	 55.298790 
885.000000	 55.631352 
884.000000	 55.949396 
883.000000	 56.265982 
882.000000	 56.588683 
881.000000	 56.901013 
880.000000	 57.192864 
879.000000	 57.478753 
878.000000	 57.768786 
877.000000	 58.051219 
876.000000	 58.319676 
875.000000	 58.586871 
874.000000	 58.855818 
873.000000	 59.108688 
872.000000	 59.339236 
871.000000	 59.565747 
870.000000	 59.797971 
869.000000	 60.021611 
868.000000	 60.228633 
867.000000	 60.432894 
866.000000	 60.642460 
865.000000	 60.844961 
864.000000	 61.033520 
863.000000	 61.220180 
862.000000	 61.410717 
861.000000	 61.592299 
860.000000	 61.758889 
859.000000	 61.923123 
858.000000	 62.090728 
857.000000	 62.249074 
856.000000	 62.393484 
855.000000	 62.538719 
854.000000	 62.691153 
853.000000	 62.835774 
852.000000	 62.965161 
851.000000	 63.095843 
850.000000	 63.240917 
849.000000	 63.390323 
848.000000	 63.532970 
847.000000	 63.675165 
846.000000	 63.822721 
845.000000	 63.967437 
844.000000	 64.105075 
843.000000	 64.244660 
842.000000	 64.386801 
841.000000	 64.514231 
840.000000	 64.616129 
839.000000	 64.700794 
838.000000	 64.773390 
837.000000	 64.824154 
836.000000	 64.851199 
835.000000	 64.872157 
834.000000	 64.898727 
833.000000	 64.920785 
832.000000	 64.930101 
831.000000	 64.938446 
830.000000	 64.957021 
829.000000	 64.979227 
828.000000	 65.000123 
827.000000	 65.030902 
826.000000	 65.075762 
825.000000	 65.117705 
824.000000	 65.146494 
823.000000	 65.175551 
822.000000	 65.213102 
821.000000	 65.244505 
820.000000	 65.258893 
819.000000	 65.265127 
818.000000	 65.268441 
817.000000	 65.256691 
816.000000	 65.221003 
815.000000	 65.167425 
814.000000	 65.097714 
813.000000	 65.000720 
812.000000	 64.873191 
811.000000	 64.726307 
810.000000	 64.561257 
809.000000	 64.362461 
808.000000	 64.125623 
807.000000	 63.866294 
806.000000	 63.588190 
805.000000	 63.271694 
804.000000	 62.910823 
803.000000	 62.535092 
802.000000	 62.177144 
801.000000	 61.844519 
800.000000	 61.540854 
799.000000	 61.286814 
798.000000	 61.098813 
797.000000	 60.972020 
796.000000	 60.902127 
795.000000	 60.897248 
794.000000	 60.952209 
793.000000	 61.039716 
792.000000	 61.142550 
791.000000	 61.265708 
790.000000	 61.404156 
789.000000	 61.530881 
788.000000	 61.631513 
787.000000	 61.718998 
786.000000	 61.797383 
785.000000	 61.842003 
784.000000	 61.835200 
783.000000	 61.795592 
782.000000	 61.754034 
781.000000	 61.723983 
780.000000	 61.709595 
779.000000	 61.715935 
778.000000	 61.735183 
777.000000	 61.748798 
776.000000	 61.757574 
775.000000	 61.784653 
774.000000	 61.838923 
773.000000	 61.904527 
772.000000	 61.977247 
771.000000	 62.079316 
770.000000	 62.225016 
769.000000	 62.402931 
768.000000	 62.605056 
767.000000	 62.840609 
766.000000	 63.106596 
765.000000	 63.376736 
764.000000	 63.634035 
763.000000	 63.884692 
762.000000	 64.129686 
761.000000	 64.354483 
760.000000	 64.554509 
759.000000	 64.732923 
758.000000	 64.862980 
757.000000	 64.898164 
756.000000	 64.843574 
755.000000	 64.780137 
754.000000	 64.788335 
753.000000	 64.872300 
752.000000	 64.978737 
751.000000	 65.057602 
750.000000	 65.081448 
749.000000	 65.040678 
748.000000	 64.951917 
747.000000	 64.851522 
746.000000	 64.759192 
745.000000	 64.666188 
744.000000	 64.569300 
743.000000	 64.483577 
742.000000	 64.403668 
741.000000	 64.284581 
740.000000	 64.079871 
739.000000	 63.767605 
738.000000	 63.323068 
737.000000	 62.705230 
736.000000	 61.894311 
735.000000	 60.910851 
734.000000	 59.780081 
733.000000	 58.518436 
732.000000	 57.182244 
731.000000	 55.889115 
730.000000	 54.757644 
729.000000	 53.858900 
728.000000	 53.251314 
727.000000	 53.010436 
726.000000	 53.174190 
725.000000	 53.689052 
724.000000	 54.444224 
723.000000	 55.330897 
722.000000	 56.249216 
721.000000	 57.100841 
720.000000	 57.819199 
719.000000	 58.392115 
718.000000	 58.830074 
717.000000	 59.139488 
716.000000	 59.343037 
715.000000	 59.483324 
714.000000	 59.577999 
713.000000	 59.605949 
712.000000	 59.563862 
711.000000	 59.492430 
710.000000	 59.417695 
709.000000	 59.315541 
708.000000	 59.168740 
707.000000	 59.013399 
706.000000	 58.891140 
705.000000	 58.801824 
704.000000	 58.741097 
703.000000	 58.731273 
702.000000	 58.774585 
701.000000	 58.826681 
700.000000	 58.854168 
699.000000	 58.868211 
698.000000	 58.862053 
697.000000	 58.775355 
696.000000	 58.570220 
695.000000	 58.283121 
694.000000	 57.958401 
693.000000	 57.592937 
692.000000	 57.194128 
691.000000	 56.827658 
690.000000	 56.542961 
689.000000	 56.309947 
688.000000	 56.091987 
687.000000	 55.910017 
686.000000	 55.767290 
685.000000	 55.595931 
684.000000	 55.349717 
683.000000	 55.062360 
682.000000	 54.750413 
681.000000	 54.355395 
680.000000	 53.845719 
679.000000	 53.273792 
678.000000	 52.658044 
677.000000	 51.916635 
676.000000	 50.996962 
675.000000	 49.941787 
674.000000	 48.777348 
673.000000	 47.491977 
672.000000	 46.203383 
671.000000	 45.082817 
670.000000	 44.156850 
669.000000	 43.196579 
668.000000	 42.255607 
667.000000	 41.871060 
666.000000	 42.140815 
665.000000	 42.796966 
664.000000	 43.710537 
663.000000	 44.814956 
662.000000	 45.994442 
661.000000	 47.087534 
660.000000	 48.027355 
659.000000	 48.827695 
658.000000	 49.488887 
657.000000	 49.993051 
656.000000	 50.363719 
655.000000	 50.672519 
654.000000	 50.971683 
653.000000	 51.261364 
652.000000	 51.535801 
651.000000	 51.815463 
650.000000	 52.107098 
649.000000	 52.382144 
648.000000	 52.628795 
647.000000	 52.876119 
646.000000	 53.131577 
645.000000	 53.354987 
644.000000	 53.524506 
643.000000	 53.671523 
642.000000	 53.818622 
641.000000	 53.933000 
640.000000	 53.985058 
639.000000	 54.003934 
638.000000	 54.023312 
637.000000	 54.027059 
636.000000	 54.008744 
635.000000	 54.018324 
634.000000	 54.076104 
633.000000	 54.114827 
632.000000	 54.079650 
631.000000	 54.009230 
630.000000	 53.953766 
629.000000	 53.888115 
628.000000	 53.779972 
627.000000	 53.671433 
626.000000	 53.604544 
625.000000	 53.539998 
624.000000	 53.443987 
623.000000	 53.369099 
622.000000	 53.345970 
621.000000	 53.304610 
620.000000	 53.209683 
619.000000	 53.136897 
618.000000	 53.103319 
617.000000	 52.996712 
616.000000	 52.804398 
615.000000	 52.686769 
614.000000	 52.693779 
613.000000	 52.671336 
612.000000	 52.561233 
611.000000	 52.521672 
610.000000	 52.620974 
609.000000	 52.691740 
608.000000	 52.638819 
607.000000	 52.606892 
606.000000	 52.689225 
605.000000	 52.747475 
604.000000	 52.685927 
603.000000	 52.626895 
602.000000	 52.654442 
601.000000	 52.653916 
600.000000	 52.561174 
599.000000	 52.524867 
598.000000	 52.649760 
597.000000	 52.807803 
596.000000	 52.877997 
595.000000	 52.938013 
594.000000	 53.050420 
593.000000	 53.103507 
592.000000	 53.053635 
591.000000	 53.081749 
590.000000	 53.276830 
589.000000	 53.444878 
588.000000	 53.460350 
587.000000	 53.492748 
586.000000	 53.667756 
585.000000	 53.814494 
584.000000	 53.811800 
583.000000	 53.861284 
582.000000	 54.091567 
581.000000	 54.255773 
580.000000	 54.203571 
579.000000	 54.256993 
578.000000	 54.651647 
577.000000	 55.057817 
576.000000	 55.162465 
575.000000	 55.226619 
574.000000	 55.554266 
573.000000	 55.908545 
572.000000	 55.965592 
571.000000	 55.844965 
570.000000	 55.777561 
569.000000	 55.677461 
568.000000	 55.486052 
567.000000	 55.483101 
566.000000	 55.743128 
565.000000	 55.886851 
564.000000	 55.767042 
563.000000	 55.782493 
562.000000	 56.134533 
561.000000	 56.409775 
560.000000	 56.345229 
559.000000	 56.320776 
558.000000	 56.631216 
557.000000	 56.930556 
556.000000	 56.906154 
555.000000	 56.859083 
554.000000	 57.073005 
553.000000	 57.278839 
552.000000	 57.195880 
551.000000	 57.154595 
550.000000	 57.379236 

