PE IR                   SPECTRUM    ASCII       PEDS        1.60        
  -1
FR220770.ASC
22/05/31
15:28:43.00
22/05/31
15:28:43.00
Administrator
Tinta cinza escuro removida com auxilio de um estilete na superficie da Amostra denominada A 3 - Deriva - sem nenhum tratamento - IR/UATR 80N - Vitor
550.000000
20









FRONTIER FT-IR/NIR,CPU32 MAIN 00.09.1072 09-JANUARY-2014 12:55:01
MIR TGS
MIR
OPTKBR
100262
0.200000

4.000000
FORTE
RAZ„O
ESPECTRO
MAGNITUDE
UNIVERSAL ATR
DUPLO

COMBINADO


0


#HDR
-1
-1
#GR
CM-1
%T
0.00002384185791015625
0.0
4000.000000
-1.000000
3451
8
97.075663
70.295028
#DATA
4000.000000	94.370820 
3999.000000	94.373622 
3998.000000	94.377200 
3997.000000	94.381615 
3996.000000	94.386326 
3995.000000	94.390861 
3994.000000	94.394558 
3993.000000	94.397028 
3992.000000	94.398611 
3991.000000	94.399633 
3990.000000	94.400083 
3989.000000	94.400147 
3988.000000	94.400253 
3987.000000	94.401229 
3986.000000	94.403214 
3985.000000	94.405175 
3984.000000	94.405929 
3983.000000	94.405127 
3982.000000	94.404114 
3981.000000	94.404714 
3980.000000	94.407818 
3979.000000	94.413024 
3978.000000	94.419060 
3977.000000	94.424340 
3976.000000	94.427312 
3975.000000	94.427103 
3974.000000	94.424319 
3973.000000	94.421095 
3972.000000	94.419764 
3971.000000	94.421491 
3970.000000	94.425454 
3969.000000	94.429634 
3968.000000	94.432489 
3967.000000	94.434024 
3966.000000	94.435830 
3965.000000	94.439808 
3964.000000	94.445978 
3963.000000	94.452506 
3962.000000	94.456493 
3961.000000	94.456049 
3960.000000	94.452682 
3959.000000	94.449617 
3958.000000	94.449318 
3957.000000	94.451395 
3956.000000	94.452607 
3955.000000	94.450350 
3954.000000	94.444860 
3953.000000	94.439594 
3952.000000	94.439619 
3951.000000	94.448002 
3950.000000	94.463793 
3949.000000	94.481085 
3948.000000	94.492292 
3947.000000	94.493264 
3946.000000	94.484224 
3945.000000	94.470172 
3944.000000	94.458912 
3943.000000	94.456739 
3942.000000	94.462946 
3941.000000	94.470600 
3940.000000	94.475114 
3939.000000	94.477201 
3938.000000	94.480794 
3937.000000	94.489005 
3936.000000	94.499816 
3935.000000	94.510251 
3934.000000	94.519356 
3933.000000	94.526115 
3932.000000	94.527049 
3931.000000	94.518133 
3930.000000	94.502165 
3929.000000	94.485700 
3928.000000	94.472568 
3927.000000	94.464607 
3926.000000	94.465972 
3925.000000	94.478692 
3924.000000	94.495786 
3923.000000	94.507039 
3922.000000	94.508970 
3921.000000	94.508997 
3920.000000	94.515724 
3919.000000	94.529115 
3918.000000	94.542243 
3917.000000	94.547489 
3916.000000	94.544300 
3915.000000	94.536937 
3914.000000	94.527847 
3913.000000	94.521173 
3912.000000	94.520077 
3911.000000	94.524591 
3910.000000	94.530938 
3909.000000	94.535775 
3908.000000	94.539049 
3907.000000	94.544835 
3906.000000	94.558581 
3905.000000	94.584704 
3904.000000	94.616661 
3903.000000	94.635814 
3902.000000	94.628126 
3901.000000	94.598692 
3900.000000	94.567431 
3899.000000	94.551141 
3898.000000	94.550935 
3897.000000	94.556978 
3896.000000	94.563297 
3895.000000	94.571345 
3894.000000	94.580579 
3893.000000	94.589811 
3892.000000	94.596494 
3891.000000	94.603051 
3890.000000	94.612781 
3889.000000	94.618174 
3888.000000	94.613805 
3887.000000	94.606651 
3886.000000	94.609894 
3885.000000	94.621605 
3884.000000	94.620813 
3883.000000	94.595864 
3882.000000	94.558639 
3881.000000	94.536202 
3880.000000	94.543987 
3879.000000	94.568715 
3878.000000	94.587076 
3877.000000	94.585121 
3876.000000	94.571075 
3875.000000	94.568021 
3874.000000	94.585611 
3873.000000	94.609478 
3872.000000	94.619940 
3871.000000	94.619165 
3870.000000	94.627766 
3869.000000	94.649316 
3868.000000	94.665240 
3867.000000	94.661524 
3866.000000	94.647762 
3865.000000	94.645507 
3864.000000	94.653819 
3863.000000	94.656524 
3862.000000	94.650790 
3861.000000	94.647657 
3860.000000	94.652919 
3859.000000	94.666104 
3858.000000	94.683729 
3857.000000	94.700919 
3856.000000	94.710538 
3855.000000	94.706264 
3854.000000	94.699710 
3853.000000	94.698857 
3852.000000	94.684519 
3851.000000	94.660215 
3850.000000	94.641556 
3849.000000	94.639046 
3848.000000	94.649630 
3847.000000	94.662499 
3846.000000	94.670326 
3845.000000	94.672593 
3844.000000	94.673942 
3843.000000	94.676807 
3842.000000	94.677512 
3841.000000	94.672025 
3840.000000	94.658803 
3839.000000	94.643277 
3838.000000	94.632411 
3837.000000	94.630860 
3836.000000	94.638617 
3835.000000	94.648591 
3834.000000	94.655553 
3833.000000	94.661340 
3832.000000	94.669877 
3831.000000	94.681107 
3830.000000	94.688488 
3829.000000	94.686344 
3828.000000	94.678066 
3827.000000	94.677029 
3826.000000	94.692343 
3825.000000	94.716209 
3824.000000	94.730113 
3823.000000	94.723260 
3822.000000	94.711044 
3821.000000	94.715548 
3820.000000	94.726687 
3819.000000	94.721169 
3818.000000	94.693105 
3817.000000	94.665069 
3816.000000	94.663922 
3815.000000	94.684933 
3814.000000	94.702333 
3813.000000	94.706251 
3812.000000	94.709434 
3811.000000	94.726010 
3810.000000	94.751323 
3809.000000	94.769694 
3808.000000	94.773826 
3807.000000	94.773501 
3806.000000	94.774092 
3805.000000	94.764908 
3804.000000	94.737891 
3803.000000	94.704513 
3802.000000	94.690806 
3801.000000	94.701668 
3800.000000	94.713255 
3799.000000	94.710350 
3798.000000	94.699723 
3797.000000	94.699124 
3796.000000	94.715838 
3795.000000	94.734637 
3794.000000	94.740899 
3793.000000	94.735124 
3792.000000	94.729278 
3791.000000	94.730810 
3790.000000	94.737545 
3789.000000	94.744805 
3788.000000	94.749353 
3787.000000	94.750078 
3786.000000	94.748370 
3785.000000	94.747248 
3784.000000	94.748020 
3783.000000	94.748190 
3782.000000	94.742348 
3781.000000	94.732410 
3780.000000	94.728829 
3779.000000	94.737244 
3778.000000	94.750276 
3777.000000	94.757414 
3776.000000	94.758381 
3775.000000	94.762003 
3774.000000	94.774085 
3773.000000	94.790675 
3772.000000	94.802936 
3771.000000	94.810263 
3770.000000	94.816064 
3769.000000	94.818277 
3768.000000	94.810380 
3767.000000	94.796527 
3766.000000	94.789932 
3765.000000	94.798396 
3764.000000	94.813528 
3763.000000	94.819163 
3762.000000	94.810453 
3761.000000	94.798583 
3760.000000	94.795010 
3759.000000	94.798391 
3758.000000	94.801962 
3757.000000	94.810668 
3756.000000	94.827892 
3755.000000	94.849710 
3754.000000	94.873503 
3753.000000	94.907609 
3752.000000	94.955782 
3751.000000	94.998280 
3750.000000	95.010593 
3749.000000	95.000931 
3748.000000	94.985654 
3747.000000	94.960286 
3746.000000	94.920894 
3745.000000	94.886299 
3744.000000	94.881210 
3743.000000	94.893443 
3742.000000	94.898587 
3741.000000	94.898483 
3740.000000	94.906914 
3739.000000	94.923635 
3738.000000	94.931660 
3737.000000	94.923988 
3736.000000	94.913801 
3735.000000	94.907386 
3734.000000	94.903375 
3733.000000	94.905822 
3732.000000	94.914687 
3731.000000	94.924919 
3730.000000	94.930790 
3729.000000	94.930509 
3728.000000	94.929920 
3727.000000	94.935457 
3726.000000	94.943937 
3725.000000	94.942068 
3724.000000	94.925117 
3723.000000	94.902426 
3722.000000	94.885082 
3721.000000	94.875946 
3720.000000	94.871744 
3719.000000	94.872393 
3718.000000	94.882091 
3717.000000	94.902664 
3716.000000	94.927060 
3715.000000	94.944790 
3714.000000	94.951668 
3713.000000	94.952626 
3712.000000	94.949841 
3711.000000	94.937308 
3710.000000	94.915529 
3709.000000	94.898477 
3708.000000	94.893708 
3707.000000	94.897988 
3706.000000	94.905142 
3705.000000	94.907433 
3704.000000	94.900676 
3703.000000	94.889698 
3702.000000	94.884325 
3701.000000	94.889074 
3700.000000	94.896909 
3699.000000	94.898857 
3698.000000	94.893900 
3697.000000	94.889571 
3696.000000	94.890873 
3695.000000	94.893187 
3694.000000	94.888877 
3693.000000	94.875979 
3692.000000	94.859179 
3691.000000	94.844829 
3690.000000	94.836860 
3689.000000	94.834378 
3688.000000	94.835246 
3687.000000	94.836185 
3686.000000	94.832670 
3685.000000	94.824829 
3684.000000	94.816869 
3683.000000	94.807579 
3682.000000	94.787545 
3681.000000	94.751682 
3680.000000	94.708699 
3679.000000	94.665159 
3678.000000	94.612013 
3677.000000	94.538206 
3676.000000	94.460527 
3675.000000	94.412498 
3674.000000	94.403280 
3673.000000	94.405002 
3672.000000	94.398986 
3671.000000	94.397850 
3670.000000	94.415321 
3669.000000	94.436705 
3668.000000	94.443502 
3667.000000	94.433941 
3666.000000	94.416817 
3665.000000	94.400783 
3664.000000	94.387606 
3663.000000	94.373855 
3662.000000	94.358460 
3661.000000	94.344902 
3660.000000	94.335730 
3659.000000	94.327598 
3658.000000	94.317209 
3657.000000	94.307338 
3656.000000	94.302012 
3655.000000	94.295327 
3654.000000	94.276415 
3653.000000	94.241354 
3652.000000	94.202037 
3651.000000	94.182922 
3650.000000	94.193877 
3649.000000	94.195173 
3648.000000	94.159261 
3647.000000	94.117529 
3646.000000	94.098333 
3645.000000	94.096353 
3644.000000	94.096248 
3643.000000	94.091053 
3642.000000	94.078872 
3641.000000	94.059365 
3640.000000	94.034227 
3639.000000	94.010326 
3638.000000	93.994659 
3637.000000	93.985210 
3636.000000	93.974005 
3635.000000	93.959601 
3634.000000	93.950471 
3633.000000	93.950055 
3632.000000	93.948714 
3631.000000	93.935161 
3630.000000	93.918877 
3629.000000	93.920822 
3628.000000	93.933596 
3627.000000	93.935414 
3626.000000	93.920532 
3625.000000	93.902312 
3624.000000	93.894288 
3623.000000	93.897047 
3622.000000	93.900821 
3621.000000	93.900244 
3620.000000	93.902983 
3619.000000	93.921324 
3618.000000	93.954163 
3617.000000	93.989234 
3616.000000	94.019273 
3615.000000	94.048624 
3614.000000	94.087919 
3613.000000	94.140138 
3612.000000	94.194733 
3611.000000	94.236949 
3610.000000	94.259471 
3609.000000	94.266538 
3608.000000	94.267360 
3607.000000	94.269320 
3606.000000	94.276289 
3605.000000	94.287272 
3604.000000	94.298743 
3603.000000	94.308987 
3602.000000	94.319587 
3601.000000	94.332058 
3600.000000	94.345082 
3599.000000	94.355279 
3598.000000	94.361273 
3597.000000	94.363880 
3596.000000	94.367343 
3595.000000	94.375447 
3594.000000	94.390107 
3593.000000	94.409195 
3592.000000	94.426576 
3591.000000	94.434153 
3590.000000	94.429144 
3589.000000	94.418319 
3588.000000	94.412161 
3587.000000	94.409547 
3586.000000	94.404577 
3585.000000	94.398898 
3584.000000	94.393887 
3583.000000	94.390273 
3582.000000	94.388500 
3581.000000	94.385138 
3580.000000	94.376681 
3579.000000	94.362915 
3578.000000	94.347531 
3577.000000	94.334799 
3576.000000	94.327124 
3575.000000	94.324483 
3574.000000	94.324612 
3573.000000	94.324477 
3572.000000	94.320670 
3571.000000	94.310192 
3570.000000	94.292700 
3569.000000	94.276218 
3568.000000	94.271991 
3567.000000	94.274424 
3566.000000	94.266658 
3565.000000	94.251257 
3564.000000	94.240096 
3563.000000	94.235196 
3562.000000	94.232752 
3561.000000	94.229558 
3560.000000	94.223814 
3559.000000	94.216476 
3558.000000	94.208838 
3557.000000	94.200672 
3556.000000	94.190957 
3555.000000	94.180100 
3554.000000	94.169918 
3553.000000	94.162600 
3552.000000	94.158869 
3551.000000	94.157300 
3550.000000	94.155647 
3549.000000	94.153140 
3548.000000	94.151094 
3547.000000	94.149874 
3546.000000	94.144660 
3545.000000	94.130748 
3544.000000	94.112359 
3543.000000	94.097194 
3542.000000	94.087531 
3541.000000	94.080976 
3540.000000	94.074151 
3539.000000	94.066146 
3538.000000	94.057837 
3537.000000	94.049174 
3536.000000	94.039106 
3535.000000	94.026899 
3534.000000	94.014432 
3533.000000	94.004896 
3532.000000	94.000534 
3531.000000	94.000350 
3530.000000	94.001603 
3529.000000	94.002185 
3528.000000	94.002208 
3527.000000	94.001818 
3526.000000	93.999582 
3525.000000	93.993454 
3524.000000	93.982615 
3523.000000	93.967935 
3522.000000	93.951385 
3521.000000	93.935625 
3520.000000	93.922773 
3519.000000	93.913829 
3518.000000	93.908580 
3517.000000	93.904571 
3516.000000	93.898858 
3515.000000	93.890217 
3514.000000	93.880059 
3513.000000	93.870861 
3512.000000	93.864774 
3511.000000	93.862191 
3510.000000	93.861311 
3509.000000	93.858369 
3508.000000	93.850790 
3507.000000	93.839417 
3506.000000	93.827920 
3505.000000	93.821541 
3504.000000	93.823104 
3503.000000	93.828034 
3502.000000	93.828220 
3501.000000	93.819866 
3500.000000	93.804484 
3499.000000	93.786122 
3498.000000	93.769429 
3497.000000	93.757706 
3496.000000	93.751157 
3495.000000	93.746710 
3494.000000	93.740850 
3493.000000	93.732697 
3492.000000	93.723836 
3491.000000	93.716244 
3490.000000	93.711028 
3489.000000	93.708000 
3488.000000	93.705634 
3487.000000	93.701260 
3486.000000	93.692402 
3485.000000	93.679516 
3484.000000	93.667237 
3483.000000	93.660959 
3482.000000	93.661627 
3481.000000	93.663798 
3480.000000	93.660617 
3479.000000	93.650040 
3478.000000	93.635404 
3477.000000	93.621678 
3476.000000	93.611819 
3475.000000	93.605137 
3474.000000	93.598690 
3473.000000	93.590931 
3472.000000	93.583179 
3471.000000	93.577464 
3470.000000	93.573635 
3469.000000	93.569352 
3468.000000	93.563123 
3467.000000	93.556261 
3466.000000	93.550415 
3465.000000	93.544762 
3464.000000	93.537185 
3463.000000	93.527355 
3462.000000	93.517165 
3461.000000	93.507820 
3460.000000	93.498185 
3459.000000	93.486479 
3458.000000	93.472434 
3457.000000	93.457539 
3456.000000	93.443892 
3455.000000	93.432440 
3454.000000	93.422920 
3453.000000	93.414320 
3452.000000	93.406125 
3451.000000	93.397739 
3450.000000	93.388189 
3449.000000	93.377496 
3448.000000	93.367607 
3447.000000	93.360557 
3446.000000	93.356004 
3445.000000	93.351351 
3444.000000	93.344308 
3443.000000	93.335157 
3442.000000	93.325732 
3441.000000	93.317335 
3440.000000	93.310126 
3439.000000	93.303504 
3438.000000	93.296673 
3437.000000	93.289080 
3436.000000	93.280671 
3435.000000	93.271389 
3434.000000	93.261350 
3433.000000	93.250951 
3432.000000	93.241083 
3431.000000	93.231621 
3430.000000	93.220996 
3429.000000	93.208286 
3428.000000	93.194947 
3427.000000	93.183638 
3426.000000	93.175524 
3425.000000	93.169715 
3424.000000	93.164555 
3423.000000	93.158650 
3422.000000	93.151110 
3421.000000	93.141771 
3420.000000	93.131169 
3419.000000	93.119556 
3418.000000	93.106867 
3417.000000	93.094010 
3416.000000	93.083166 
3415.000000	93.075665 
3414.000000	93.070172 
3413.000000	93.064184 
3412.000000	93.056782 
3411.000000	93.048894 
3410.000000	93.041266 
3409.000000	93.033531 
3408.000000	93.025128 
3407.000000	93.016410 
3406.000000	93.008507 
3405.000000	93.002616 
3404.000000	92.999038 
3403.000000	92.996410 
3402.000000	92.992576 
3401.000000	92.986342 
3400.000000	92.978598 
3399.000000	92.971261 
3398.000000	92.965478 
3397.000000	92.960790 
3396.000000	92.956054 
3395.000000	92.950929 
3394.000000	92.946059 
3393.000000	92.941934 
3392.000000	92.937906 
3391.000000	92.932733 
3390.000000	92.926000 
3389.000000	92.918754 
3388.000000	92.912373 
3387.000000	92.907282 
3386.000000	92.903223 
3385.000000	92.900358 
3384.000000	92.899370 
3383.000000	92.900049 
3382.000000	92.900819 
3381.000000	92.899828 
3380.000000	92.896633 
3379.000000	92.892222 
3378.000000	92.887716 
3377.000000	92.883531 
3376.000000	92.879908 
3375.000000	92.877626 
3374.000000	92.877228 
3373.000000	92.877845 
3372.000000	92.877514 
3371.000000	92.875137 
3370.000000	92.871453 
3369.000000	92.867990 
3368.000000	92.865372 
3367.000000	92.863148 
3366.000000	92.860884 
3365.000000	92.858913 
3364.000000	92.858031 
3363.000000	92.858777 
3362.000000	92.861101 
3361.000000	92.864583 
3360.000000	92.868697 
3359.000000	92.872697 
3358.000000	92.875608 
3357.000000	92.876774 
3356.000000	92.876448 
3355.000000	92.875492 
3354.000000	92.874380 
3353.000000	92.872973 
3352.000000	92.871258 
3351.000000	92.869857 
3350.000000	92.869376 
3349.000000	92.869771 
3348.000000	92.870522 
3347.000000	92.871181 
3346.000000	92.871512 
3345.000000	92.871476 
3344.000000	92.871800 
3343.000000	92.873702 
3342.000000	92.877506 
3341.000000	92.881734 
3340.000000	92.884443 
3339.000000	92.885263 
3338.000000	92.885266 
3337.000000	92.885187 
3336.000000	92.884873 
3335.000000	92.884303 
3334.000000	92.883879 
3333.000000	92.883603 
3332.000000	92.883256 
3331.000000	92.883480 
3330.000000	92.885428 
3329.000000	92.888878 
3328.000000	92.891812 
3327.000000	92.892576 
3326.000000	92.891646 
3325.000000	92.890355 
3324.000000	92.889152 
3323.000000	92.888037 
3322.000000	92.887956 
3321.000000	92.890126 
3320.000000	92.894475 
3319.000000	92.899930 
3318.000000	92.905895 
3317.000000	92.912060 
3316.000000	92.917317 
3315.000000	92.920402 
3314.000000	92.921850 
3313.000000	92.923898 
3312.000000	92.928002 
3311.000000	92.933492 
3310.000000	92.939037 
3309.000000	92.944179 
3308.000000	92.948730 
3307.000000	92.951822 
3306.000000	92.952730 
3305.000000	92.952277 
3304.000000	92.952454 
3303.000000	92.954709 
3302.000000	92.959108 
3301.000000	92.964841 
3300.000000	92.970996 
3299.000000	92.976781 
3298.000000	92.981867 
3297.000000	92.986521 
3296.000000	92.991400 
3295.000000	92.996951 
3294.000000	93.003102 
3293.000000	93.009397 
3292.000000	93.015351 
3291.000000	93.020863 
3290.000000	93.026348 
3289.000000	93.032143 
3288.000000	93.037785 
3287.000000	93.042281 
3286.000000	93.045350 
3285.000000	93.047955 
3284.000000	93.051257 
3283.000000	93.055422 
3282.000000	93.059720 
3281.000000	93.063695 
3280.000000	93.067801 
3279.000000	93.073134 
3278.000000	93.080654 
3277.000000	93.090217 
3276.000000	93.100216 
3275.000000	93.108536 
3274.000000	93.114369 
3273.000000	93.119071 
3272.000000	93.124971 
3271.000000	93.133370 
3270.000000	93.143809 
3269.000000	93.154788 
3268.000000	93.164809 
3267.000000	93.172967 
3266.000000	93.179153 
3265.000000	93.183908 
3264.000000	93.188113 
3263.000000	93.192885 
3262.000000	93.199156 
3261.000000	93.207010 
3260.000000	93.215239 
3259.000000	93.222278 
3258.000000	93.227631 
3257.000000	93.232303 
3256.000000	93.237877 
3255.000000	93.245285 
3254.000000	93.254379 
3253.000000	93.264212 
3252.000000	93.273871 
3251.000000	93.282932 
3250.000000	93.291514 
3249.000000	93.299934 
3248.000000	93.308606 
3247.000000	93.318175 
3246.000000	93.329041 
3245.000000	93.340467 
3244.000000	93.350945 
3243.000000	93.359971 
3242.000000	93.368720 
3241.000000	93.378472 
3240.000000	93.388920 
3239.000000	93.398747 
3238.000000	93.407216 
3237.000000	93.414663 
3236.000000	93.421800 
3235.000000	93.429301 
3234.000000	93.437712 
3233.000000	93.446949 
3232.000000	93.456330 
3231.000000	93.465368 
3230.000000	93.474277 
3229.000000	93.483152 
3228.000000	93.491237 
3227.000000	93.497900 
3226.000000	93.503842 
3225.000000	93.510449 
3224.000000	93.518321 
3223.000000	93.527155 
3222.000000	93.536519 
3221.000000	93.545858 
3220.000000	93.554211 
3219.000000	93.561304 
3218.000000	93.568417 
3217.000000	93.577132 
3216.000000	93.587360 
3215.000000	93.597683 
3214.000000	93.607268 
3213.000000	93.616410 
3212.000000	93.625331 
3211.000000	93.633531 
3210.000000	93.640804 
3209.000000	93.648095 
3208.000000	93.656541 
3207.000000	93.665977 
3206.000000	93.674890 
3205.000000	93.682073 
3204.000000	93.688024 
3203.000000	93.694683 
3202.000000	93.703355 
3201.000000	93.713230 
3200.000000	93.722189 
3199.000000	93.729299 
3198.000000	93.735733 
3197.000000	93.743203 
3196.000000	93.752092 
3195.000000	93.761509 
3194.000000	93.770439 
3193.000000	93.778177 
3192.000000	93.784302 
3191.000000	93.788925 
3190.000000	93.792946 
3189.000000	93.797601 
3188.000000	93.803940 
3187.000000	93.812754 
3186.000000	93.823842 
3185.000000	93.835245 
3184.000000	93.844002 
3183.000000	93.848888 
3182.000000	93.851631 
3181.000000	93.855142 
3180.000000	93.861141 
3179.000000	93.869792 
3178.000000	93.880478 
3177.000000	93.891820 
3176.000000	93.901572 
3175.000000	93.908058 
3174.000000	93.912083 
3173.000000	93.916597 
3172.000000	93.924144 
3171.000000	93.934771 
3170.000000	93.946313 
3169.000000	93.956182 
3168.000000	93.963061 
3167.000000	93.967545 
3166.000000	93.971278 
3165.000000	93.975702 
3164.000000	93.981572 
3163.000000	93.989361 
3162.000000	93.999053 
3161.000000	94.009405 
3160.000000	94.018257 
3159.000000	94.024242 
3158.000000	94.027959 
3157.000000	94.031181 
3156.000000	94.035295 
3155.000000	94.040816 
3154.000000	94.047751 
3153.000000	94.055777 
3152.000000	94.064268 
3151.000000	94.072651 
3150.000000	94.080655 
3149.000000	94.087930 
3148.000000	94.093875 
3147.000000	94.098450 
3146.000000	94.102944 
3145.000000	94.109156 
3144.000000	94.117629 
3143.000000	94.127100 
3142.000000	94.135749 
3141.000000	94.142495 
3140.000000	94.147475 
3139.000000	94.151821 
3138.000000	94.157109 
3137.000000	94.164129 
3136.000000	94.172037 
3135.000000	94.179040 
3134.000000	94.184108 
3133.000000	94.187843 
3132.000000	94.191945 
3131.000000	94.197739 
3130.000000	94.205017 
3129.000000	94.212316 
3128.000000	94.218637 
3127.000000	94.224438 
3126.000000	94.230635 
3125.000000	94.237057 
3124.000000	94.242590 
3123.000000	94.246843 
3122.000000	94.250865 
3121.000000	94.256056 
3120.000000	94.262796 
3119.000000	94.270342 
3118.000000	94.277553 
3117.000000	94.283023 
3116.000000	94.285298 
3115.000000	94.284056 
3114.000000	94.281246 
3113.000000	94.280349 
3112.000000	94.283996 
3111.000000	94.291776 
3110.000000	94.300648 
3109.000000	94.307638 
3108.000000	94.312307 
3107.000000	94.316236 
3106.000000	94.320567 
3105.000000	94.324962 
3104.000000	94.328725 
3103.000000	94.332070 
3102.000000	94.335633 
3101.000000	94.339408 
3100.000000	94.342425 
3099.000000	94.343920 
3098.000000	94.344648 
3097.000000	94.346579 
3096.000000	94.350900 
3095.000000	94.356495 
3094.000000	94.361016 
3093.000000	94.363493 
3092.000000	94.365106 
3091.000000	94.367201 
3090.000000	94.369543 
3089.000000	94.370939 
3088.000000	94.371130 
3087.000000	94.371063 
3086.000000	94.371558 
3085.000000	94.372742 
3084.000000	94.374692 
3083.000000	94.377875 
3082.000000	94.382341 
3081.000000	94.387021 
3080.000000	94.390272 
3079.000000	94.391245 
3078.000000	94.390576 
3077.000000	94.389948 
3076.000000	94.391058 
3075.000000	94.394429 
3074.000000	94.399124 
3073.000000	94.403564 
3072.000000	94.406896 
3071.000000	94.409356 
3070.000000	94.411618 
3069.000000	94.414346 
3068.000000	94.418188 
3067.000000	94.423800 
3066.000000	94.431479 
3065.000000	94.440900 
3064.000000	94.451016 
3063.000000	94.460185 
3062.000000	94.466820 
3061.000000	94.470571 
3060.000000	94.472808 
3059.000000	94.475741 
3058.000000	94.480992 
3057.000000	94.488809 
3056.000000	94.498464 
3055.000000	94.508491 
3054.000000	94.517049 
3053.000000	94.522900 
3052.000000	94.526784 
3051.000000	94.531353 
3050.000000	94.538792 
3049.000000	94.548496 
3048.000000	94.557616 
3047.000000	94.564110 
3046.000000	94.568541 
3045.000000	94.572806 
3044.000000	94.577936 
3043.000000	94.583757 
3042.000000	94.589819 
3041.000000	94.595752 
3040.000000	94.600947 
3039.000000	94.605019 
3038.000000	94.608607 
3037.000000	94.612940 
3036.000000	94.618663 
3035.000000	94.625521 
3034.000000	94.633161 
3033.000000	94.641175 
3032.000000	94.648327 
3031.000000	94.652883 
3030.000000	94.654233 
3029.000000	94.653997 
3028.000000	94.654684 
3027.000000	94.657941 
3026.000000	94.663798 
3025.000000	94.671348 
3024.000000	94.679612 
3023.000000	94.687668 
3022.000000	94.694468 
3021.000000	94.699001 
3020.000000	94.700771 
3019.000000	94.700293 
3018.000000	94.699019 
3017.000000	94.698620 
3016.000000	94.699745 
3015.000000	94.701505 
3014.000000	94.702189 
3013.000000	94.700511 
3012.000000	94.696291 
3011.000000	94.690317 
3010.000000	94.683712 
3009.000000	94.677275 
3008.000000	94.671106 
3007.000000	94.664945 
3006.000000	94.658637 
3005.000000	94.651941 
3004.000000	94.643755 
3003.000000	94.632293 
3002.000000	94.616601 
3001.000000	94.597835 
3000.000000	94.578314 
2999.000000	94.559404 
2998.000000	94.540615 
2997.000000	94.520645 
2996.000000	94.498717 
2995.000000	94.474848 
2994.000000	94.449261 
2993.000000	94.421883 
2992.000000	94.392272 
2991.000000	94.359819 
2990.000000	94.324065 
2989.000000	94.284762 
2988.000000	94.241792 
2987.000000	94.195269 
2986.000000	94.145711 
2985.000000	94.093809 
2984.000000	94.039736 
2983.000000	93.983050 
2982.000000	93.923401 
2981.000000	93.861286 
2980.000000	93.797658 
2979.000000	93.732903 
2978.000000	93.666513 
2977.000000	93.597940 
2976.000000	93.527357 
2975.000000	93.455453 
2974.000000	93.382638 
2973.000000	93.308799 
2972.000000	93.233882 
2971.000000	93.158778 
2970.000000	93.085404 
2969.000000	93.015785 
2968.000000	92.950801 
2967.000000	92.889991 
2966.000000	92.832482 
2965.000000	92.777863 
2964.000000	92.726247 
2963.000000	92.677782 
2962.000000	92.632378 
2961.000000	92.589512 
2960.000000	92.548082 
2959.000000	92.506623 
2958.000000	92.464079 
2957.000000	92.420421 
2956.000000	92.376236 
2955.000000	92.331694 
2954.000000	92.285903 
2953.000000	92.237200 
2952.000000	92.183808 
2951.000000	92.124429 
2950.000000	92.058644 
2949.000000	91.986998 
2948.000000	91.910593 
2947.000000	91.830487 
2946.000000	91.747666 
2945.000000	91.663443 
2944.000000	91.579311 
2943.000000	91.496156 
2942.000000	91.413933 
2941.000000	91.332646 
2940.000000	91.253282 
2939.000000	91.177431 
2938.000000	91.106251 
2937.000000	91.040524 
2936.000000	90.981659 
2935.000000	90.931628 
2934.000000	90.891301 
2933.000000	90.859591 
2932.000000	90.835139 
2931.000000	90.818407 
2930.000000	90.811499 
2929.000000	90.815862 
2928.000000	90.831090 
2927.000000	90.855811 
2926.000000	90.889114 
2925.000000	90.930991 
2924.000000	90.982318 
2923.000000	91.044497 
2922.000000	91.118185 
2921.000000	91.201934 
2920.000000	91.292668 
2919.000000	91.387772 
2918.000000	91.486034 
2917.000000	91.586297 
2916.000000	91.686409 
2915.000000	91.784240 
2914.000000	91.879110 
2913.000000	91.971238 
2912.000000	92.059857 
2911.000000	92.142778 
2910.000000	92.218024 
2909.000000	92.285249 
2908.000000	92.345512 
2907.000000	92.399881 
2906.000000	92.448860 
2905.000000	92.493164 
2904.000000	92.534752 
2903.000000	92.576133 
2902.000000	92.618632 
2901.000000	92.659951 
2900.000000	92.698125 
2899.000000	92.732726 
2898.000000	92.765506 
2897.000000	92.798105 
2896.000000	92.830314 
2895.000000	92.860656 
2894.000000	92.887997 
2893.000000	92.912326 
2892.000000	92.934287 
2891.000000	92.954123 
2890.000000	92.970704 
2889.000000	92.981826 
2888.000000	92.986199 
2887.000000	92.985393 
2886.000000	92.983237 
2885.000000	92.983026 
2884.000000	92.985610 
2883.000000	92.989997 
2882.000000	92.994971 
2881.000000	92.999751 
2880.000000	93.003987 
2879.000000	93.007795 
2878.000000	93.011291 
2877.000000	93.013465 
2876.000000	93.011767 
2875.000000	93.003424 
2874.000000	92.987072 
2873.000000	92.963100 
2872.000000	92.932748 
2871.000000	92.897312 
2870.000000	92.857723 
2869.000000	92.814176 
2868.000000	92.766178 
2867.000000	92.713312 
2866.000000	92.656018 
2865.000000	92.595770 
2864.000000	92.534992 
2863.000000	92.477056 
2862.000000	92.425649 
2861.000000	92.383279 
2860.000000	92.350534 
2859.000000	92.327457 
2858.000000	92.315683 
2857.000000	92.318565 
2856.000000	92.339462 
2855.000000	92.380148 
2854.000000	92.440613 
2853.000000	92.519357 
2852.000000	92.613577 
2851.000000	92.719763 
2850.000000	92.834762 
2849.000000	92.956274 
2848.000000	93.082316 
2847.000000	93.210249 
2846.000000	93.336418 
2845.000000	93.456775 
2844.000000	93.568216 
2843.000000	93.669416 
2842.000000	93.760551 
2841.000000	93.842238 
2840.000000	93.915104 
2839.000000	93.980010 
2838.000000	94.038113 
2837.000000	94.090311 
2836.000000	94.136954 
2835.000000	94.178347 
2834.000000	94.215490 
2833.000000	94.249955 
2832.000000	94.282929 
2831.000000	94.314341 
2830.000000	94.343141 
2829.000000	94.368493 
2828.000000	94.390778 
2827.000000	94.411278 
2826.000000	94.430950 
2825.000000	94.449928 
2824.000000	94.468132 
2823.000000	94.485768 
2822.000000	94.502922 
2821.000000	94.519199 
2820.000000	94.534319 
2819.000000	94.548642 
2818.000000	94.562524 
2817.000000	94.575518 
2816.000000	94.587024 
2815.000000	94.597550 
2814.000000	94.608506 
2813.000000	94.620647 
2812.000000	94.633514 
2811.000000	94.646448 
2810.000000	94.659288 
2809.000000	94.671769 
2808.000000	94.682972 
2807.000000	94.692109 
2806.000000	94.699582 
2805.000000	94.706845 
2804.000000	94.715279 
2803.000000	94.725392 
2802.000000	94.736857 
2801.000000	94.748897 
2800.000000	94.760603 
2799.000000	94.771185 
2798.000000	94.780235 
2797.000000	94.788013 
2796.000000	94.795446 
2795.000000	94.803448 
2794.000000	94.811999 
2793.000000	94.820190 
2792.000000	94.827516 
2791.000000	94.834765 
2790.000000	94.843057 
2789.000000	94.852265 
2788.000000	94.861096 
2787.000000	94.868700 
2786.000000	94.875503 
2785.000000	94.882313 
2784.000000	94.889339 
2783.000000	94.896428 
2782.000000	94.903719 
2781.000000	94.911504 
2780.000000	94.919627 
2779.000000	94.927441 
2778.000000	94.934356 
2777.000000	94.940318 
2776.000000	94.945815 
2775.000000	94.951386 
2774.000000	94.957048 
2773.000000	94.962253 
2772.000000	94.966698 
2771.000000	94.971113 
2770.000000	94.976772 
2769.000000	94.984034 
2768.000000	94.991704 
2767.000000	94.998170 
2766.000000	95.003073 
2765.000000	95.007603 
2764.000000	95.013158 
2763.000000	95.019794 
2762.000000	95.026102 
2761.000000	95.030612 
2760.000000	95.033371 
2759.000000	95.035831 
2758.000000	95.039076 
2757.000000	95.042613 
2756.000000	95.045292 
2755.000000	95.047197 
2754.000000	95.049934 
2753.000000	95.054868 
2752.000000	95.061559 
2751.000000	95.068274 
2750.000000	95.073720 
2749.000000	95.077851 
2748.000000	95.081106 
2747.000000	95.083474 
2746.000000	95.084872 
2745.000000	95.086188 
2744.000000	95.089098 
2743.000000	95.094353 
2742.000000	95.100592 
2741.000000	95.105514 
2740.000000	95.108155 
2739.000000	95.109501 
2738.000000	95.110946 
2737.000000	95.112988 
2736.000000	95.115661 
2735.000000	95.119351 
2734.000000	95.124449 
2733.000000	95.130534 
2732.000000	95.136518 
2731.000000	95.141499 
2730.000000	95.145297 
2729.000000	95.148427 
2728.000000	95.151744 
2727.000000	95.155733 
2726.000000	95.160010 
2725.000000	95.163942 
2724.000000	95.167862 
2723.000000	95.172830 
2722.000000	95.178856 
2721.000000	95.184238 
2720.000000	95.187549 
2719.000000	95.189554 
2718.000000	95.192266 
2717.000000	95.196561 
2716.000000	95.201644 
2715.000000	95.206517 
2714.000000	95.210923 
2713.000000	95.214916 
2712.000000	95.218461 
2711.000000	95.221611 
2710.000000	95.224537 
2709.000000	95.227328 
2708.000000	95.230238 
2707.000000	95.233864 
2706.000000	95.238422 
2705.000000	95.243061 
2704.000000	95.246645 
2703.000000	95.249128 
2702.000000	95.251426 
2701.000000	95.254065 
2700.000000	95.256759 
2699.000000	95.259321 
2698.000000	95.262072 
2697.000000	95.265116 
2696.000000	95.267989 
2695.000000	95.270363 
2694.000000	95.272554 
2693.000000	95.275012 
2692.000000	95.277685 
2691.000000	95.280163 
2690.000000	95.282177 
2689.000000	95.283889 
2688.000000	95.285922 
2687.000000	95.289013 
2686.000000	95.293268 
2685.000000	95.297902 
2684.000000	95.302081 
2683.000000	95.305824 
2682.000000	95.309536 
2681.000000	95.312877 
2680.000000	95.314907 
2679.000000	95.315316 
2678.000000	95.314846 
2677.000000	95.314390 
2676.000000	95.314360 
2675.000000	95.315067 
2674.000000	95.316917 
2673.000000	95.319862 
2672.000000	95.323083 
2671.000000	95.325576 
2670.000000	95.326831 
2669.000000	95.326857 
2668.000000	95.325950 
2667.000000	95.324527 
2666.000000	95.322742 
2665.000000	95.320114 
2664.000000	95.315955 
2663.000000	95.310351 
2662.000000	95.304319 
2661.000000	95.298799 
2660.000000	95.293879 
2659.000000	95.289302 
2658.000000	95.285402 
2657.000000	95.283049 
2656.000000	95.282616 
2655.000000	95.283283 
2654.000000	95.283575 
2653.000000	95.282748 
2652.000000	95.281580 
2651.000000	95.281601 
2650.000000	95.283402 
2649.000000	95.285909 
2648.000000	95.287475 
2647.000000	95.287416 
2646.000000	95.286414 
2645.000000	95.285804 
2644.000000	95.286811 
2643.000000	95.289996 
2642.000000	95.294774 
2641.000000	95.299588 
2640.000000	95.303075 
2639.000000	95.305052 
2638.000000	95.306162 
2637.000000	95.306899 
2636.000000	95.307476 
2635.000000	95.308313 
2634.000000	95.310025 
2633.000000	95.312917 
2632.000000	95.316800 
2631.000000	95.321044 
2630.000000	95.324529 
2629.000000	95.326148 
2628.000000	95.326116 
2627.000000	95.326326 
2626.000000	95.328569 
2625.000000	95.332673 
2624.000000	95.337260 
2623.000000	95.341878 
2622.000000	95.347118 
2621.000000	95.352620 
2620.000000	95.356454 
2619.000000	95.357192 
2618.000000	95.355752 
2617.000000	95.354513 
2616.000000	95.355029 
2615.000000	95.357143 
2614.000000	95.359918 
2613.000000	95.362814 
2612.000000	95.366021 
2611.000000	95.370035 
2610.000000	95.375105 
2609.000000	95.381019 
2608.000000	95.387312 
2607.000000	95.393454 
2606.000000	95.398905 
2605.000000	95.403403 
2604.000000	95.407305 
2603.000000	95.411180 
2602.000000	95.414864 
2601.000000	95.417463 
2600.000000	95.418602 
2599.000000	95.419107 
2598.000000	95.420040 
2597.000000	95.421642 
2596.000000	95.423717 
2595.000000	95.426376 
2594.000000	95.429741 
2593.000000	95.433436 
2592.000000	95.437081 
2591.000000	95.440901 
2590.000000	95.445248 
2589.000000	95.449899 
2588.000000	95.454298 
2587.000000	95.457973 
2586.000000	95.460436 
2585.000000	95.461577 
2584.000000	95.462687 
2583.000000	95.465893 
2582.000000	95.471600 
2581.000000	95.477572 
2580.000000	95.481584 
2579.000000	95.483855 
2578.000000	95.485539 
2577.000000	95.486060 
2576.000000	95.484150 
2575.000000	95.481006 
2574.000000	95.480146 
2573.000000	95.483769 
2572.000000	95.490789 
2571.000000	95.498691 
2570.000000	95.505825 
2569.000000	95.511484 
2568.000000	95.515223 
2567.000000	95.517000 
2566.000000	95.517452 
2565.000000	95.517614 
2564.000000	95.518610 
2563.000000	95.521327 
2562.000000	95.525671 
2561.000000	95.530423 
2560.000000	95.534590 
2559.000000	95.538520 
2558.000000	95.542868 
2557.000000	95.547108 
2556.000000	95.550367 
2555.000000	95.553277 
2554.000000	95.557354 
2553.000000	95.562561 
2552.000000	95.567086 
2551.000000	95.569882 
2550.000000	95.572086 
2549.000000	95.575323 
2548.000000	95.579694 
2547.000000	95.584051 
2546.000000	95.587359 
2545.000000	95.589165 
2544.000000	95.589467 
2543.000000	95.588930 
2542.000000	95.589000 
2541.000000	95.591166 
2540.000000	95.595843 
2539.000000	95.601942 
2538.000000	95.607506 
2537.000000	95.611011 
2536.000000	95.612260 
2535.000000	95.612128 
2534.000000	95.611858 
2533.000000	95.613040 
2532.000000	95.617522 
2531.000000	95.625678 
2530.000000	95.634569 
2529.000000	95.639620 
2528.000000	95.639278 
2527.000000	95.636824 
2526.000000	95.636575 
2525.000000	95.639676 
2524.000000	95.644758 
2523.000000	95.650982 
2522.000000	95.658175 
2521.000000	95.664831 
2520.000000	95.668575 
2519.000000	95.669005 
2518.000000	95.668389 
2517.000000	95.669224 
2516.000000	95.672217 
2515.000000	95.676564 
2514.000000	95.680845 
2513.000000	95.683569 
2512.000000	95.684308 
2511.000000	95.684713 
2510.000000	95.687325 
2509.000000	95.692909 
2508.000000	95.699598 
2507.000000	95.704857 
2506.000000	95.707662 
2505.000000	95.708828 
2504.000000	95.710030 
2503.000000	95.712567 
2502.000000	95.716356 
2501.000000	95.719989 
2500.000000	95.722164 
2499.000000	95.722970 
2498.000000	95.723441 
2497.000000	95.724373 
2496.000000	95.726084 
2495.000000	95.728728 
2494.000000	95.731960 
2493.000000	95.734765 
2492.000000	95.736663 
2491.000000	95.738780 
2490.000000	95.742697 
2489.000000	95.748257 
2488.000000	95.753412 
2487.000000	95.756430 
2486.000000	95.757728 
2485.000000	95.759430 
2484.000000	95.763341 
2483.000000	95.769248 
2482.000000	95.775111 
2481.000000	95.779214 
2480.000000	95.781878 
2479.000000	95.784276 
2478.000000	95.785934 
2477.000000	95.785226 
2476.000000	95.782819 
2475.000000	95.782516 
2474.000000	95.787081 
2473.000000	95.794522 
2472.000000	95.800186 
2471.000000	95.801700 
2470.000000	95.800237 
2469.000000	95.797808 
2468.000000	95.795413 
2467.000000	95.793699 
2466.000000	95.793518 
2465.000000	95.795208 
2464.000000	95.798287 
2463.000000	95.802028 
2462.000000	95.805561 
2461.000000	95.807587 
2460.000000	95.807141 
2459.000000	95.804838 
2458.000000	95.802557 
2457.000000	95.801636 
2456.000000	95.801886 
2455.000000	95.802492 
2454.000000	95.803399 
2453.000000	95.805537 
2452.000000	95.809666 
2451.000000	95.815003 
2450.000000	95.819329 
2449.000000	95.821079 
2448.000000	95.821170 
2447.000000	95.821994 
2446.000000	95.824744 
2445.000000	95.828780 
2444.000000	95.833346 
2443.000000	95.838357 
2442.000000	95.843400 
2441.000000	95.847715 
2440.000000	95.851629 
2439.000000	95.856207 
2438.000000	95.860952 
2437.000000	95.863857 
2436.000000	95.864619 
2435.000000	95.865659 
2434.000000	95.868712 
2433.000000	95.872548 
2432.000000	95.875639 
2431.000000	95.878889 
2430.000000	95.883620 
2429.000000	95.888760 
2428.000000	95.892604 
2427.000000	95.895977 
2426.000000	95.900851 
2425.000000	95.906718 
2424.000000	95.911053 
2423.000000	95.913039 
2422.000000	95.914342 
2421.000000	95.916383 
2420.000000	95.919151 
2419.000000	95.922713 
2418.000000	95.927555 
2417.000000	95.932930 
2416.000000	95.936810 
2415.000000	95.938244 
2414.000000	95.938502 
2413.000000	95.939371 
2412.000000	95.941197 
2411.000000	95.942981 
2410.000000	95.943936 
2409.000000	95.944951 
2408.000000	95.948685 
2407.000000	95.957372 
2406.000000	95.969860 
2405.000000	95.981866 
2404.000000	95.990227 
2403.000000	95.995727 
2402.000000	96.000546 
2401.000000	96.004476 
2400.000000	96.005662 
2399.000000	96.004070 
2398.000000	96.001816 
2397.000000	96.000360 
2396.000000	95.999637 
2395.000000	95.999952 
2394.000000	96.002453 
2393.000000	96.007142 
2392.000000	96.012242 
2391.000000	96.016300 
2390.000000	96.019446 
2389.000000	96.021990 
2388.000000	96.023227 
2387.000000	96.022601 
2386.000000	96.021018 
2385.000000	96.020027 
2384.000000	96.020437 
2383.000000	96.022807 
2382.000000	96.028954 
2381.000000	96.041639 
2380.000000	96.061833 
2379.000000	96.086348 
2378.000000	96.109071 
2377.000000	96.125568 
2376.000000	96.136117 
2375.000000	96.143117 
2374.000000	96.146547 
2373.000000	96.144073 
2372.000000	96.136545 
2371.000000	96.130354 
2370.000000	96.131289 
2369.000000	96.137201 
2368.000000	96.139991 
2367.000000	96.134662 
2366.000000	96.124661 
2365.000000	96.118918 
2364.000000	96.124664 
2363.000000	96.139843 
2362.000000	96.153316 
2361.000000	96.155195 
2360.000000	96.145113 
2359.000000	96.133810 
2358.000000	96.136194 
2357.000000	96.157286 
2356.000000	96.188123 
2355.000000	96.211610 
2354.000000	96.222024 
2353.000000	96.226995 
2352.000000	96.231414 
2351.000000	96.230169 
2350.000000	96.215916 
2349.000000	96.192173 
2348.000000	96.168442 
2347.000000	96.151835 
2346.000000	96.144773 
2345.000000	96.141947 
2344.000000	96.137664 
2343.000000	96.125919 
2342.000000	96.111939 
2341.000000	96.106739 
2340.000000	96.111786 
2339.000000	96.119850 
2338.000000	96.123321 
2337.000000	96.123335 
2336.000000	96.122541 
2335.000000	96.122407 
2334.000000	96.120945 
2333.000000	96.119627 
2332.000000	96.117895 
2331.000000	96.117047 
2330.000000	96.111889 
2329.000000	96.099013 
2328.000000	96.072320 
2327.000000	96.028327 
2326.000000	95.968920 
2325.000000	95.904936 
2324.000000	95.856774 
2323.000000	95.840463 
2322.000000	95.856034 
2321.000000	95.887526 
2320.000000	95.916742 
2319.000000	95.937066 
2318.000000	95.947808 
2317.000000	95.953547 
2316.000000	95.958443 
2315.000000	95.968345 
2314.000000	95.980916 
2313.000000	95.990230 
2312.000000	95.990796 
2311.000000	95.986409 
2310.000000	95.981709 
2309.000000	95.978298 
2308.000000	95.974165 
2307.000000	95.970563 
2306.000000	95.968843 
2305.000000	95.968082 
2304.000000	95.964877 
2303.000000	95.959517 
2302.000000	95.954679 
2301.000000	95.953322 
2300.000000	95.954483 
2299.000000	95.956097 
2298.000000	95.955262 
2297.000000	95.951031 
2296.000000	95.944103 
2295.000000	95.937115 
2294.000000	95.931791 
2293.000000	95.928038 
2292.000000	95.924597 
2291.000000	95.919599 
2290.000000	95.910899 
2289.000000	95.897826 
2288.000000	95.883993 
2287.000000	95.874969 
2286.000000	95.872753 
2285.000000	95.874070 
2284.000000	95.875819 
2283.000000	95.878847 
2282.000000	95.885275 
2281.000000	95.894832 
2280.000000	95.906387 
2279.000000	95.920133 
2278.000000	95.935608 
2277.000000	95.950116 
2276.000000	95.961582 
2275.000000	95.971051 
2274.000000	95.979504 
2273.000000	95.985539 
2272.000000	95.988575 
2271.000000	95.991392 
2270.000000	95.995738 
2269.000000	95.998923 
2268.000000	95.998863 
2267.000000	95.999808 
2266.000000	96.007818 
2265.000000	96.022085 
2264.000000	96.035179 
2263.000000	96.040932 
2262.000000	96.038658 
2261.000000	96.030870 
2260.000000	96.021396 
2259.000000	96.014573 
2258.000000	96.012995 
2257.000000	96.016213 
2256.000000	96.023533 
2255.000000	96.036150 
2254.000000	96.053342 
2253.000000	96.069410 
2252.000000	96.078242 
2251.000000	96.079644 
2250.000000	96.077450 
2249.000000	96.073590 
2248.000000	96.068681 
2247.000000	96.064718 
2246.000000	96.064475 
2245.000000	96.067123 
2244.000000	96.068978 
2243.000000	96.068237 
2242.000000	96.066298 
2241.000000	96.065090 
2240.000000	96.065716 
2239.000000	96.068439 
2238.000000	96.071569 
2237.000000	96.071765 
2236.000000	96.067875 
2235.000000	96.062872 
2234.000000	96.059927 
2233.000000	96.058936 
2232.000000	96.059090 
2231.000000	96.061710 
2230.000000	96.067374 
2229.000000	96.073284 
2228.000000	96.077081 
2227.000000	96.080585 
2226.000000	96.085999 
2225.000000	96.091471 
2224.000000	96.094492 
2223.000000	96.096880 
2222.000000	96.101863 
2221.000000	96.108458 
2220.000000	96.113128 
2219.000000	96.115218 
2218.000000	96.116981 
2217.000000	96.120143 
2216.000000	96.125734 
2215.000000	96.134320 
2214.000000	96.142872 
2213.000000	96.144909 
2212.000000	96.138349 
2211.000000	96.130283 
2210.000000	96.129205 
2209.000000	96.135193 
2208.000000	96.141892 
2207.000000	96.145057 
2206.000000	96.144216 
2205.000000	96.139308 
2204.000000	96.131851 
2203.000000	96.127091 
2202.000000	96.129027 
2201.000000	96.134478 
2200.000000	96.136831 
2199.000000	96.134491 
2198.000000	96.131060 
2197.000000	96.128833 
2196.000000	96.126793 
2195.000000	96.123804 
2194.000000	96.119863 
2193.000000	96.115559 
2192.000000	96.113531 
2191.000000	96.117721 
2190.000000	96.127215 
2189.000000	96.133420 
2188.000000	96.127878 
2187.000000	96.111475 
2186.000000	96.092445 
2185.000000	96.078991 
2184.000000	96.077885 
2183.000000	96.095084 
2182.000000	96.130421 
2181.000000	96.171998 
2180.000000	96.202722 
2179.000000	96.214196 
2178.000000	96.211789 
2177.000000	96.208879 
2176.000000	96.217684 
2175.000000	96.239620 
2174.000000	96.260330 
2173.000000	96.258540 
2172.000000	96.225012 
2171.000000	96.171131 
2170.000000	96.116450 
2169.000000	96.072721 
2168.000000	96.041131 
2167.000000	96.019359 
2166.000000	96.005540 
2165.000000	95.996939 
2164.000000	95.989441 
2163.000000	95.980274 
2162.000000	95.975421 
2161.000000	96.000119 
2160.000000	96.094315 
2159.000000	96.275940 
2158.000000	96.499201 
2157.000000	96.674314 
2156.000000	96.744260 
2155.000000	96.724920 
2154.000000	96.667678 
2153.000000	96.611375 
2152.000000	96.570980 
2151.000000	96.547397 
2150.000000	96.534079 
2149.000000	96.521695 
2148.000000	96.508592 
2147.000000	96.503069 
2146.000000	96.509961 
2145.000000	96.521731 
2144.000000	96.528876 
2143.000000	96.531881 
2142.000000	96.535352 
2141.000000	96.537717 
2140.000000	96.535241 
2139.000000	96.531220 
2138.000000	96.533354 
2137.000000	96.545399 
2136.000000	96.566909 
2135.000000	96.596469 
2134.000000	96.628263 
2133.000000	96.649820 
2132.000000	96.650754 
2131.000000	96.632266 
2130.000000	96.603576 
2129.000000	96.573216 
2128.000000	96.546612 
2127.000000	96.527137 
2126.000000	96.513638 
2125.000000	96.499821 
2124.000000	96.480800 
2123.000000	96.458702 
2122.000000	96.438494 
2121.000000	96.421388 
2120.000000	96.406080 
2119.000000	96.393173 
2118.000000	96.383292 
2117.000000	96.373091 
2116.000000	96.358475 
2115.000000	96.341243 
2114.000000	96.328036 
2113.000000	96.322795 
2112.000000	96.323214 
2111.000000	96.324454 
2110.000000	96.323572 
2109.000000	96.321014 
2108.000000	96.319991 
2107.000000	96.323640 
2106.000000	96.330826 
2105.000000	96.336102 
2104.000000	96.335519 
2103.000000	96.330932 
2102.000000	96.326798 
2101.000000	96.325277 
2100.000000	96.326227 
2099.000000	96.330161 
2098.000000	96.339140 
2097.000000	96.356232 
2096.000000	96.383781 
2095.000000	96.418615 
2094.000000	96.448724 
2093.000000	96.460785 
2092.000000	96.452959 
2091.000000	96.435651 
2090.000000	96.418156 
2089.000000	96.400921 
2088.000000	96.382473 
2087.000000	96.366516 
2086.000000	96.356985 
2085.000000	96.351742 
2084.000000	96.346324 
2083.000000	96.340582 
2082.000000	96.336970 
2081.000000	96.335757 
2080.000000	96.335953 
2079.000000	96.337867 
2078.000000	96.340790 
2077.000000	96.341890 
2076.000000	96.340978 
2075.000000	96.342197 
2074.000000	96.347815 
2073.000000	96.355005 
2072.000000	96.362008 
2071.000000	96.371470 
2070.000000	96.383642 
2069.000000	96.392187 
2068.000000	96.392282 
2067.000000	96.387720 
2066.000000	96.384975 
2065.000000	96.385411 
2064.000000	96.388386 
2063.000000	96.395427 
2062.000000	96.405367 
2061.000000	96.412533 
2060.000000	96.414717 
2059.000000	96.416365 
2058.000000	96.419286 
2057.000000	96.419230 
2056.000000	96.416405 
2055.000000	96.417143 
2054.000000	96.416319 
2053.000000	96.391562 
2052.000000	96.330897 
2051.000000	96.259193 
2050.000000	96.221260 
2049.000000	96.238528 
2048.000000	96.291696 
2047.000000	96.347199 
2046.000000	96.386861 
2045.000000	96.407472 
2044.000000	96.411057 
2043.000000	96.404531 
2042.000000	96.397096 
2041.000000	96.391688 
2040.000000	96.385350 
2039.000000	96.378452 
2038.000000	96.375574 
2037.000000	96.378824 
2036.000000	96.387807 
2035.000000	96.404212 
2034.000000	96.428022 
2033.000000	96.452240 
2032.000000	96.471514 
2031.000000	96.491521 
2030.000000	96.518728 
2029.000000	96.545844 
2028.000000	96.559589 
2027.000000	96.558735 
2026.000000	96.552689 
2025.000000	96.547054 
2024.000000	96.543166 
2023.000000	96.546284 
2022.000000	96.560757 
2021.000000	96.579190 
2020.000000	96.589707 
2019.000000	96.592460 
2018.000000	96.596705 
2017.000000	96.603589 
2016.000000	96.605194 
2015.000000	96.599120 
2014.000000	96.590720 
2013.000000	96.583165 
2012.000000	96.575053 
2011.000000	96.567088 
2010.000000	96.564424 
2009.000000	96.572892 
2008.000000	96.596742 
2007.000000	96.634888 
2006.000000	96.674656 
2005.000000	96.696427 
2004.000000	96.692240 
2003.000000	96.673024 
2002.000000	96.652692 
2001.000000	96.634243 
2000.000000	96.615117 
1999.000000	96.596395 
1998.000000	96.579294 
1997.000000	96.561756 
1996.000000	96.544476 
1995.000000	96.533511 
1994.000000	96.530959 
1993.000000	96.528909 
1992.000000	96.520529 
1991.000000	96.512945 
1990.000000	96.515732 
1989.000000	96.523399 
1988.000000	96.522390 
1987.000000	96.509118 
1986.000000	96.491080 
1985.000000	96.473487 
1984.000000	96.453918 
1983.000000	96.427744 
1982.000000	96.391943 
1981.000000	96.349452 
1980.000000	96.317616 
1979.000000	96.325786 
1978.000000	96.389709 
1977.000000	96.488379 
1976.000000	96.579488 
1975.000000	96.639472 
1974.000000	96.674164 
1973.000000	96.696204 
1972.000000	96.710435 
1971.000000	96.719082 
1970.000000	96.725051 
1969.000000	96.727162 
1968.000000	96.722044 
1967.000000	96.713123 
1966.000000	96.709100 
1965.000000	96.712371 
1964.000000	96.718598 
1963.000000	96.727572 
1962.000000	96.745271 
1961.000000	96.773636 
1960.000000	96.805856 
1959.000000	96.833031 
1958.000000	96.848677 
1957.000000	96.847855 
1956.000000	96.830604 
1955.000000	96.806700 
1954.000000	96.789532 
1953.000000	96.783214 
1952.000000	96.781751 
1951.000000	96.780313 
1950.000000	96.780494 
1949.000000	96.784100 
1948.000000	96.789918 
1947.000000	96.797161 
1946.000000	96.805533 
1945.000000	96.811367 
1944.000000	96.809157 
1943.000000	96.798536 
1942.000000	96.786887 
1941.000000	96.783754 
1940.000000	96.791983 
1939.000000	96.805108 
1938.000000	96.814327 
1937.000000	96.815830 
1936.000000	96.812965 
1935.000000	96.811945 
1934.000000	96.814676 
1933.000000	96.816978 
1932.000000	96.816115 
1931.000000	96.815303 
1930.000000	96.816484 
1929.000000	96.815175 
1928.000000	96.809230 
1927.000000	96.805804 
1926.000000	96.811954 
1925.000000	96.825385 
1924.000000	96.836233 
1923.000000	96.838385 
1922.000000	96.834925 
1921.000000	96.833967 
1920.000000	96.838706 
1919.000000	96.843500 
1918.000000	96.839594 
1917.000000	96.824849 
1916.000000	96.810475 
1915.000000	96.807870 
1914.000000	96.813889 
1913.000000	96.818307 
1912.000000	96.818976 
1911.000000	96.822532 
1910.000000	96.829659 
1909.000000	96.831452 
1908.000000	96.826120 
1907.000000	96.823301 
1906.000000	96.826632 
1905.000000	96.829693 
1904.000000	96.828334 
1903.000000	96.827390 
1902.000000	96.829900 
1901.000000	96.831828 
1900.000000	96.831509 
1899.000000	96.833721 
1898.000000	96.840065 
1897.000000	96.844897 
1896.000000	96.844750 
1895.000000	96.844426 
1894.000000	96.847222 
1893.000000	96.849356 
1892.000000	96.847949 
1891.000000	96.844879 
1890.000000	96.840514 
1889.000000	96.830878 
1888.000000	96.821253 
1887.000000	96.823931 
1886.000000	96.838124 
1885.000000	96.850189 
1884.000000	96.852302 
1883.000000	96.851395 
1882.000000	96.854141 
1881.000000	96.856623 
1880.000000	96.854797 
1879.000000	96.853507 
1878.000000	96.857332 
1877.000000	96.862356 
1876.000000	96.863633 
1875.000000	96.863590 
1874.000000	96.867576 
1873.000000	96.876876 
1872.000000	96.890335 
1871.000000	96.905651 
1870.000000	96.915235 
1869.000000	96.905668 
1868.000000	96.877432 
1867.000000	96.857414 
1866.000000	96.861325 
1865.000000	96.875967 
1864.000000	96.885321 
1863.000000	96.888748 
1862.000000	96.892472 
1861.000000	96.895904 
1860.000000	96.896006 
1859.000000	96.895696 
1858.000000	96.896912 
1857.000000	96.896110 
1856.000000	96.893929 
1855.000000	96.896665 
1854.000000	96.904846 
1853.000000	96.910877 
1852.000000	96.911762 
1851.000000	96.916093 
1850.000000	96.928107 
1849.000000	96.943094 
1848.000000	96.961126 
1847.000000	96.991395 
1846.000000	97.030438 
1845.000000	97.049668 
1844.000000	97.027266 
1843.000000	96.984268 
1842.000000	96.958597 
1841.000000	96.959485 
1840.000000	96.971186 
1839.000000	96.978880 
1838.000000	96.981236 
1837.000000	96.982012 
1836.000000	96.982390 
1835.000000	96.984931 
1834.000000	96.993683 
1833.000000	97.005971 
1832.000000	97.009457 
1831.000000	96.995033 
1830.000000	96.969130 
1829.000000	96.946914 
1828.000000	96.940193 
1827.000000	96.949453 
1826.000000	96.962254 
1825.000000	96.966366 
1824.000000	96.963003 
1823.000000	96.966913 
1822.000000	96.983821 
1821.000000	97.002635 
1820.000000	97.014882 
1819.000000	97.028388 
1818.000000	97.051060 
1817.000000	97.071930 
1816.000000	97.075663 
1815.000000	97.067633 
1814.000000	97.062253 
1813.000000	97.058021 
1812.000000	97.042646 
1811.000000	97.019606 
1810.000000	97.007846 
1809.000000	97.010169 
1808.000000	97.014119 
1807.000000	97.016813 
1806.000000	97.022254 
1805.000000	97.026879 
1804.000000	97.024715 
1803.000000	97.019866 
1802.000000	97.019550 
1801.000000	97.015642 
1800.000000	97.000757 
1799.000000	96.990644 
1798.000000	96.999447 
1797.000000	97.017037 
1796.000000	97.030211 
1795.000000	97.041236 
1794.000000	97.052681 
1793.000000	97.048116 
1792.000000	97.009478 
1791.000000	96.954984 
1790.000000	96.923425 
1789.000000	96.921827 
1788.000000	96.932157 
1787.000000	96.941228 
1786.000000	96.944620 
1785.000000	96.935766 
1784.000000	96.910789 
1783.000000	96.880925 
1782.000000	96.861541 
1781.000000	96.852614 
1780.000000	96.846672 
1779.000000	96.843314 
1778.000000	96.846320 
1777.000000	96.851765 
1776.000000	96.856552 
1775.000000	96.863777 
1774.000000	96.868306 
1773.000000	96.850126 
1772.000000	96.797434 
1771.000000	96.737983 
1770.000000	96.712629 
1769.000000	96.712323 
1768.000000	96.693125 
1767.000000	96.640113 
1766.000000	96.584639 
1765.000000	96.551485 
1764.000000	96.526016 
1763.000000	96.476132 
1762.000000	96.392957 
1761.000000	96.297486 
1760.000000	96.208312 
1759.000000	96.122715 
1758.000000	96.021143 
1757.000000	95.880071 
1756.000000	95.701414 
1755.000000	95.519947 
1754.000000	95.357375 
1753.000000	95.186107 
1752.000000	94.945044 
1751.000000	94.596971 
1750.000000	94.175993 
1749.000000	93.743166 
1748.000000	93.317340 
1747.000000	92.897032 
1746.000000	92.480881 
1745.000000	92.051465 
1744.000000	91.592463 
1743.000000	91.120730 
1742.000000	90.668194 
1741.000000	90.223346 
1740.000000	89.747712 
1739.000000	89.266346 
1738.000000	88.861860 
1737.000000	88.554769 
1736.000000	88.275143 
1735.000000	87.926335 
1734.000000	87.495509 
1733.000000	87.085366 
1732.000000	86.762933 
1731.000000	86.505949 
1730.000000	86.281363 
1729.000000	86.084626 
1728.000000	85.923395 
1727.000000	85.795176 
1726.000000	85.691864 
1725.000000	85.613653 
1724.000000	85.567896 
1723.000000	85.550810 
1722.000000	85.546282 
1721.000000	85.537447 
1720.000000	85.519209 
1719.000000	85.523545 
1718.000000	85.630106 
1717.000000	85.830546 
1716.000000	86.001254 
1715.000000	86.113310 
1714.000000	86.201709 
1713.000000	86.280918 
1712.000000	86.354356 
1711.000000	86.430173 
1710.000000	86.515063 
1709.000000	86.600912 
1708.000000	86.673795 
1707.000000	86.741860 
1706.000000	86.831647 
1705.000000	86.941992 
1704.000000	87.038959 
1703.000000	87.116266 
1702.000000	87.180304 
1701.000000	87.232244 
1700.000000	87.297863 
1699.000000	87.355616 
1698.000000	87.376355 
1697.000000	87.369614 
1696.000000	87.353838 
1695.000000	87.356244 
1694.000000	87.365384 
1693.000000	87.356629 
1692.000000	87.330490 
1691.000000	87.300910 
1690.000000	87.286899 
1689.000000	87.290527 
1688.000000	87.294579 
1687.000000	87.285522 
1686.000000	87.255936 
1685.000000	87.243894 
1684.000000	87.353683 
1683.000000	87.548550 
1682.000000	87.721492 
1681.000000	87.874231 
1680.000000	88.042929 
1679.000000	88.235317 
1678.000000	88.438323 
1677.000000	88.654975 
1676.000000	88.917028 
1675.000000	89.226285 
1674.000000	89.503896 
1673.000000	89.707195 
1672.000000	89.880946 
1671.000000	90.073069 
1670.000000	90.296255 
1669.000000	90.518936 
1668.000000	90.700295 
1667.000000	90.832580 
1666.000000	90.934918 
1665.000000	91.029226 
1664.000000	91.130019 
1663.000000	91.241610 
1662.000000	91.347293 
1661.000000	91.429263 
1660.000000	91.498087 
1659.000000	91.561579 
1658.000000	91.615055 
1657.000000	91.662365 
1656.000000	91.713250 
1655.000000	91.751970 
1654.000000	91.749600 
1653.000000	91.756612 
1652.000000	91.784600 
1651.000000	91.792730 
1650.000000	91.798098 
1649.000000	91.809633 
1648.000000	91.829201 
1647.000000	91.859712 
1646.000000	91.874326 
1645.000000	91.869294 
1644.000000	91.861043 
1643.000000	91.856577 
1642.000000	91.853859 
1641.000000	91.846609 
1640.000000	91.838316 
1639.000000	91.836434 
1638.000000	91.839128 
1637.000000	91.841814 
1636.000000	91.854575 
1635.000000	91.884007 
1634.000000	91.915953 
1633.000000	91.949909 
1632.000000	91.995565 
1631.000000	92.047943 
1630.000000	92.093932 
1629.000000	92.136121 
1628.000000	92.193585 
1627.000000	92.271521 
1626.000000	92.356342 
1625.000000	92.441759 
1624.000000	92.538312 
1623.000000	92.647474 
1622.000000	92.745557 
1621.000000	92.828423 
1620.000000	92.916809 
1619.000000	93.016454 
1618.000000	93.115558 
1617.000000	93.208297 
1616.000000	93.298624 
1615.000000	93.380645 
1614.000000	93.453663 
1613.000000	93.527587 
1612.000000	93.607656 
1611.000000	93.687923 
1610.000000	93.755774 
1609.000000	93.810774 
1608.000000	93.866481 
1607.000000	93.922282 
1606.000000	93.963042 
1605.000000	93.985865 
1604.000000	94.003557 
1603.000000	94.017788 
1602.000000	94.016914 
1601.000000	94.004947 
1600.000000	94.002568 
1599.000000	94.017902 
1598.000000	94.043843 
1597.000000	94.080138 
1596.000000	94.135496 
1595.000000	94.205421 
1594.000000	94.269050 
1593.000000	94.318380 
1592.000000	94.364113 
1591.000000	94.407081 
1590.000000	94.432010 
1589.000000	94.435374 
1588.000000	94.431443 
1587.000000	94.423329 
1586.000000	94.397383 
1585.000000	94.350923 
1584.000000	94.298983 
1583.000000	94.250500 
1582.000000	94.196728 
1581.000000	94.141124 
1580.000000	94.108054 
1579.000000	94.108494 
1578.000000	94.120550 
1577.000000	94.120237 
1576.000000	94.111898 
1575.000000	94.100999 
1574.000000	94.087519 
1573.000000	94.081102 
1572.000000	94.077971 
1571.000000	94.052276 
1570.000000	93.981380 
1569.000000	93.886451 
1568.000000	93.812917 
1567.000000	93.763694 
1566.000000	93.705245 
1565.000000	93.625195 
1564.000000	93.548026 
1563.000000	93.499932 
1562.000000	93.468301 
1561.000000	93.399475 
1560.000000	93.240698 
1559.000000	93.077832 
1558.000000	92.951547 
1557.000000	92.885060 
1556.000000	92.851652 
1555.000000	92.806779 
1554.000000	92.725231 
1553.000000	92.618932 
1552.000000	92.517859 
1551.000000	92.431914 
1550.000000	92.352414 
1549.000000	92.283004 
1548.000000	92.236503 
1547.000000	92.208677 
1546.000000	92.179577 
1545.000000	92.141940 
1544.000000	92.106110 
1543.000000	92.075363 
1542.000000	92.029860 
1541.000000	91.935920 
1540.000000	91.790800 
1539.000000	91.660164 
1538.000000	91.589846 
1537.000000	91.553521 
1536.000000	91.525618 
1535.000000	91.478318 
1534.000000	91.392029 
1533.000000	91.281204 
1532.000000	91.183591 
1531.000000	91.116003 
1530.000000	91.057178 
1529.000000	90.989088 
1528.000000	90.917917 
1527.000000	90.859059 
1526.000000	90.811249 
1525.000000	90.760544 
1524.000000	90.706806 
1523.000000	90.660054 
1522.000000	90.622281 
1521.000000	90.579479 
1520.000000	90.529794 
1519.000000	90.496517 
1518.000000	90.494688 
1517.000000	90.535954 
1516.000000	90.614418 
1515.000000	90.707778 
1514.000000	90.806114 
1513.000000	90.909198 
1512.000000	91.016244 
1511.000000	91.122455 
1510.000000	91.229660 
1509.000000	91.352539 
1508.000000	91.529071 
1507.000000	91.775276 
1506.000000	92.023174 
1505.000000	92.225812 
1504.000000	92.372876 
1503.000000	92.507220 
1502.000000	92.654688 
1501.000000	92.810434 
1500.000000	92.961539 
1499.000000	93.108985 
1498.000000	93.274479 
1497.000000	93.456364 
1496.000000	93.605005 
1495.000000	93.699004 
1494.000000	93.770735 
1493.000000	93.838218 
1492.000000	93.891991 
1491.000000	93.923013 
1490.000000	93.932999 
1489.000000	93.905513 
1488.000000	93.844482 
1487.000000	93.782623 
1486.000000	93.722240 
1485.000000	93.643785 
1484.000000	93.537504 
1483.000000	93.404684 
1482.000000	93.246066 
1481.000000	93.066207 
1480.000000	92.879363 
1479.000000	92.698746 
1478.000000	92.520125 
1477.000000	92.340468 
1476.000000	92.177560 
1475.000000	92.053787 
1474.000000	91.955002 
1473.000000	91.825694 
1472.000000	91.641590 
1471.000000	91.464372 
1470.000000	91.338306 
1469.000000	91.246529 
1468.000000	91.165352 
1467.000000	91.085268 
1466.000000	91.009501 
1465.000000	90.945132 
1464.000000	90.898380 
1463.000000	90.870362 
1462.000000	90.859186 
1461.000000	90.864944 
1460.000000	90.893188 
1459.000000	90.960322 
1458.000000	91.095882 
1457.000000	91.280519 
1456.000000	91.395860 
1455.000000	91.417675 
1454.000000	91.415542 
1453.000000	91.426462 
1452.000000	91.451360 
1451.000000	91.484809 
1450.000000	91.531587 
1449.000000	91.602510 
1448.000000	91.697569 
1447.000000	91.803946 
1446.000000	91.916324 
1445.000000	92.037369 
1444.000000	92.172846 
1443.000000	92.321820 
1442.000000	92.477985 
1441.000000	92.637256 
1440.000000	92.797463 
1439.000000	92.955053 
1438.000000	93.113967 
1437.000000	93.285937 
1436.000000	93.449595 
1435.000000	93.565731 
1434.000000	93.655366 
1433.000000	93.753312 
1432.000000	93.863179 
1431.000000	93.971839 
1430.000000	94.078942 
1429.000000	94.191843 
1428.000000	94.296682 
1427.000000	94.374064 
1426.000000	94.429238 
1425.000000	94.482547 
1424.000000	94.541600 
1423.000000	94.592135 
1422.000000	94.634714 
1421.000000	94.677788 
1420.000000	94.712404 
1419.000000	94.725439 
1418.000000	94.723848 
1417.000000	94.730713 
1416.000000	94.746120 
1415.000000	94.755035 
1414.000000	94.758385 
1413.000000	94.769569 
1412.000000	94.787929 
1411.000000	94.795177 
1410.000000	94.787907 
1409.000000	94.781996 
1408.000000	94.780485 
1407.000000	94.772905 
1406.000000	94.761307 
1405.000000	94.757604 
1404.000000	94.757960 
1403.000000	94.748061 
1402.000000	94.730981 
1401.000000	94.715440 
1400.000000	94.697968 
1399.000000	94.666660 
1398.000000	94.623032 
1397.000000	94.581037 
1396.000000	94.533012 
1395.000000	94.457549 
1394.000000	94.364105 
1393.000000	94.285422 
1392.000000	94.226362 
1391.000000	94.174220 
1390.000000	94.125803 
1389.000000	94.084564 
1388.000000	94.045962 
1387.000000	93.996553 
1386.000000	93.938935 
1385.000000	93.893280 
1384.000000	93.867549 
1383.000000	93.854928 
1382.000000	93.851019 
1381.000000	93.857179 
1380.000000	93.872735 
1379.000000	93.893161 
1378.000000	93.914939 
1377.000000	93.940065 
1376.000000	93.974015 
1375.000000	94.022084 
1374.000000	94.083398 
1373.000000	94.152073 
1372.000000	94.222711 
1371.000000	94.289759 
1370.000000	94.350933 
1369.000000	94.411058 
1368.000000	94.473688 
1367.000000	94.534324 
1366.000000	94.588508 
1365.000000	94.638686 
1364.000000	94.693796 
1363.000000	94.756991 
1362.000000	94.814160 
1361.000000	94.855487 
1360.000000	94.886050 
1359.000000	94.910292 
1358.000000	94.928883 
1357.000000	94.943958 
1356.000000	94.958442 
1355.000000	94.973335 
1354.000000	94.988556 
1353.000000	95.004784 
1352.000000	95.024264 
1351.000000	95.050568 
1350.000000	95.083526 
1349.000000	95.120780 
1348.000000	95.160232 
1347.000000	95.198619 
1346.000000	95.230929 
1345.000000	95.252477 
1344.000000	95.261059 
1343.000000	95.258671 
1342.000000	95.252171 
1341.000000	95.250409 
1340.000000	95.253443 
1339.000000	95.249154 
1338.000000	95.235615 
1337.000000	95.229124 
1336.000000	95.240865 
1335.000000	95.267990 
1334.000000	95.302652 
1333.000000	95.339769 
1332.000000	95.375563 
1331.000000	95.402737 
1330.000000	95.411545 
1329.000000	95.397226 
1328.000000	95.361727 
1327.000000	95.308683 
1326.000000	95.240228 
1325.000000	95.161051 
1324.000000	95.077388 
1323.000000	94.993385 
1322.000000	94.911273 
1321.000000	94.831910 
1320.000000	94.752183 
1319.000000	94.664415 
1318.000000	94.563240 
1317.000000	94.450363 
1316.000000	94.329029 
1315.000000	94.197805 
1314.000000	94.052518 
1313.000000	93.890773 
1312.000000	93.713830 
1311.000000	93.525642 
1310.000000	93.330071 
1309.000000	93.129664 
1308.000000	92.927882 
1307.000000	92.731697 
1306.000000	92.548648 
1305.000000	92.383362 
1304.000000	92.235643 
1303.000000	92.102269 
1302.000000	91.978564 
1301.000000	91.859362 
1300.000000	91.740932 
1299.000000	91.622153 
1298.000000	91.502135 
1297.000000	91.377475 
1296.000000	91.245019 
1295.000000	91.105428 
1294.000000	90.961384 
1293.000000	90.813148 
1292.000000	90.659423 
1291.000000	90.501967 
1290.000000	90.345320 
1289.000000	90.192323 
1288.000000	90.043632 
1287.000000	89.900743 
1286.000000	89.765749 
1285.000000	89.638594 
1284.000000	89.517773 
1283.000000	89.402891 
1282.000000	89.293591 
1281.000000	89.188001 
1280.000000	89.085654 
1279.000000	88.988857 
1278.000000	88.898972 
1277.000000	88.813824 
1276.000000	88.731761 
1275.000000	88.654112 
1274.000000	88.580751 
1273.000000	88.506605 
1272.000000	88.425706 
1271.000000	88.336042 
1270.000000	88.238552 
1269.000000	88.134776 
1268.000000	88.027789 
1267.000000	87.921650 
1266.000000	87.817394 
1265.000000	87.712187 
1264.000000	87.604767 
1263.000000	87.497908 
1262.000000	87.392897 
1261.000000	87.286419 
1260.000000	87.176562 
1259.000000	87.066338 
1258.000000	86.958735 
1257.000000	86.853067 
1256.000000	86.750176 
1255.000000	86.655647 
1254.000000	86.573920 
1253.000000	86.504410 
1252.000000	86.447358 
1251.000000	86.407122 
1250.000000	86.385567 
1249.000000	86.378095 
1248.000000	86.380191 
1247.000000	86.392395 
1246.000000	86.416332 
1245.000000	86.451060 
1244.000000	86.496270 
1243.000000	86.553657 
1242.000000	86.622076 
1241.000000	86.696189 
1240.000000	86.771923 
1239.000000	86.848021 
1238.000000	86.920776 
1237.000000	86.983131 
1236.000000	87.031056 
1235.000000	87.065906 
1234.000000	87.089205 
1233.000000	87.100462 
1232.000000	87.101748 
1231.000000	87.098934 
1230.000000	87.095697 
1229.000000	87.090591 
1228.000000	87.082306 
1227.000000	87.072909 
1226.000000	87.063144 
1225.000000	87.049324 
1224.000000	87.027681 
1223.000000	86.997501 
1222.000000	86.958051 
1221.000000	86.907763 
1220.000000	86.849196 
1219.000000	86.789330 
1218.000000	86.731658 
1217.000000	86.672664 
1216.000000	86.609272 
1215.000000	86.544645 
1214.000000	86.483200 
1213.000000	86.425088 
1212.000000	86.369231 
1211.000000	86.317322 
1210.000000	86.271111 
1209.000000	86.229970 
1208.000000	86.193857 
1207.000000	86.163609 
1206.000000	86.135945 
1205.000000	86.103994 
1204.000000	86.065292 
1203.000000	86.023137 
1202.000000	85.978296 
1201.000000	85.926617 
1200.000000	85.867272 
1199.000000	85.805569 
1198.000000	85.744506 
1197.000000	85.680649 
1196.000000	85.611781 
1195.000000	85.541248 
1194.000000	85.470706 
1193.000000	85.396201 
1192.000000	85.315553 
1191.000000	85.232133 
1190.000000	85.147354 
1189.000000	85.057175 
1188.000000	84.960564 
1187.000000	84.863488 
1186.000000	84.769659 
1185.000000	84.675072 
1184.000000	84.576916 
1183.000000	84.480228 
1182.000000	84.390465 
1181.000000	84.306790 
1180.000000	84.227571 
1179.000000	84.154055 
1178.000000	84.083839 
1177.000000	84.010099 
1176.000000	83.932091 
1175.000000	83.857318 
1174.000000	83.789189 
1173.000000	83.722450 
1172.000000	83.654739 
1171.000000	83.591923 
1170.000000	83.537424 
1169.000000	83.487170 
1168.000000	83.440479 
1167.000000	83.404718 
1166.000000	83.383183 
1165.000000	83.369233 
1164.000000	83.358517 
1163.000000	83.356145 
1162.000000	83.365744 
1161.000000	83.382492 
1160.000000	83.403119 
1159.000000	83.431473 
1158.000000	83.468164 
1157.000000	83.505265 
1156.000000	83.536804 
1155.000000	83.564555 
1154.000000	83.589149 
1153.000000	83.606299 
1152.000000	83.616259 
1151.000000	83.625429 
1150.000000	83.632841 
1149.000000	83.625953 
1148.000000	83.595574 
1147.000000	83.544548 
1146.000000	83.476884 
1145.000000	83.389777 
1144.000000	83.282967 
1143.000000	83.165092 
1142.000000	83.043281 
1141.000000	82.915879 
1140.000000	82.782054 
1139.000000	82.648036 
1138.000000	82.516807 
1137.000000	82.382147 
1136.000000	82.239649 
1135.000000	82.092792 
1134.000000	81.941572 
1133.000000	81.776966 
1132.000000	81.594363 
1131.000000	81.401541 
1130.000000	81.206535 
1129.000000	81.009356 
1128.000000	80.812681 
1127.000000	80.627463 
1126.000000	80.458817 
1125.000000	80.298530 
1124.000000	80.139603 
1123.000000	79.985289 
1122.000000	79.837287 
1121.000000	79.690456 
1120.000000	79.546890 
1119.000000	79.419149 
1118.000000	79.310950 
1117.000000	79.210049 
1116.000000	79.107722 
1115.000000	79.008906 
1114.000000	78.916658 
1113.000000	78.825217 
1112.000000	78.736401 
1111.000000	78.663540 
1110.000000	78.609978 
1109.000000	78.562956 
1108.000000	78.516191 
1107.000000	78.478514 
1106.000000	78.450750 
1105.000000	78.415628 
1104.000000	78.361839 
1103.000000	78.298644 
1102.000000	78.236792 
1101.000000	78.174605 
1100.000000	78.110048 
1099.000000	78.052054 
1098.000000	78.002168 
1097.000000	77.948848 
1096.000000	77.888484 
1095.000000	77.833443 
1094.000000	77.789711 
1093.000000	77.746354 
1092.000000	77.696727 
1091.000000	77.649720 
1090.000000	77.610350 
1089.000000	77.569230 
1088.000000	77.520077 
1087.000000	77.467146 
1086.000000	77.406571 
1085.000000	77.321422 
1084.000000	77.204765 
1083.000000	77.066838 
1082.000000	76.910799 
1081.000000	76.723817 
1080.000000	76.502381 
1079.000000	76.263271 
1078.000000	76.018117 
1077.000000	75.760452 
1076.000000	75.489895 
1075.000000	75.224743 
1074.000000	74.977443 
1073.000000	74.741278 
1072.000000	74.513484 
1071.000000	74.306097 
1070.000000	74.122539 
1069.000000	73.951023 
1068.000000	73.792926 
1067.000000	73.668736 
1066.000000	73.583534 
1065.000000	73.516374 
1064.000000	73.456438 
1063.000000	73.418880 
1062.000000	73.411849 
1061.000000	73.417805 
1060.000000	73.421905 
1059.000000	73.430128 
1058.000000	73.444523 
1057.000000	73.448242 
1056.000000	73.430878 
1055.000000	73.403959 
1054.000000	73.377643 
1053.000000	73.345894 
1052.000000	73.307705 
1051.000000	73.276490 
1050.000000	73.252980 
1049.000000	73.216358 
1048.000000	73.156209 
1047.000000	73.083327 
1046.000000	72.998270 
1045.000000	72.880682 
1044.000000	72.721033 
1043.000000	72.534947 
1042.000000	72.335896 
1041.000000	72.120353 
1040.000000	71.891612 
1039.000000	71.670901 
1038.000000	71.470393 
1037.000000	71.280094 
1036.000000	71.094390 
1035.000000	70.926172 
1034.000000	70.782667 
1033.000000	70.653471 
1032.000000	70.535378 
1031.000000	70.442953 
1030.000000	70.381787 
1029.000000	70.337752 
1028.000000	70.304624 
1027.000000	70.295028 
1026.000000	70.312861 
1025.000000	70.342458 
1024.000000	70.375919 
1023.000000	70.424000 
1022.000000	70.490159 
1021.000000	70.560979 
1020.000000	70.632518 
1019.000000	70.719074 
1018.000000	70.824749 
1017.000000	70.932836 
1016.000000	71.034235 
1015.000000	71.140230 
1014.000000	71.256656 
1013.000000	71.371118 
1012.000000	71.476025 
1011.000000	71.579554 
1010.000000	71.684576 
1009.000000	71.780834 
1008.000000	71.866932 
1007.000000	71.955892 
1006.000000	72.049584 
1005.000000	72.131343 
1004.000000	72.194000 
1003.000000	72.251322 
1002.000000	72.311610 
1001.000000	72.363690 
1000.000000	72.399739 
999.000000	 72.428930 
998.000000	 72.457625 
997.000000	 72.477875 
996.000000	 72.486493 
995.000000	 72.494876 
994.000000	 72.509422 
993.000000	 72.521596 
992.000000	 72.526861 
991.000000	 72.533570 
990.000000	 72.543997 
989.000000	 72.547462 
988.000000	 72.541546 
987.000000	 72.539380 
986.000000	 72.547313 
985.000000	 72.556623 
984.000000	 72.565718 
983.000000	 72.588552 
982.000000	 72.631735 
981.000000	 72.684702 
980.000000	 72.742049 
979.000000	 72.814513 
978.000000	 72.908405 
977.000000	 73.015258 
976.000000	 73.131338 
975.000000	 73.266129 
974.000000	 73.422141 
973.000000	 73.586956 
972.000000	 73.753931 
971.000000	 73.930366 
970.000000	 74.117135 
969.000000	 74.300838 
968.000000	 74.474727 
967.000000	 74.648098 
966.000000	 74.826468 
965.000000	 75.000713 
964.000000	 75.163784 
963.000000	 75.320196 
962.000000	 75.471554 
961.000000	 75.610544 
960.000000	 75.736116 
959.000000	 75.856771 
958.000000	 75.972181 
957.000000	 76.069353 
956.000000	 76.143621 
955.000000	 76.205646 
954.000000	 76.260993 
953.000000	 76.301212 
952.000000	 76.323283 
951.000000	 76.340266 
950.000000	 76.363750 
949.000000	 76.392670 
948.000000	 76.427541 
947.000000	 76.477442 
946.000000	 76.543215 
945.000000	 76.610790 
944.000000	 76.670706 
943.000000	 76.728546 
942.000000	 76.788253 
941.000000	 76.842014 
940.000000	 76.885653 
939.000000	 76.927789 
938.000000	 76.973945 
937.000000	 77.016632 
936.000000	 77.050529 
935.000000	 77.082688 
934.000000	 77.118882 
933.000000	 77.154761 
932.000000	 77.189497 
931.000000	 77.233259 
930.000000	 77.291565 
929.000000	 77.355692 
928.000000	 77.417219 
927.000000	 77.478791 
926.000000	 77.543011 
925.000000	 77.604678 
924.000000	 77.662073 
923.000000	 77.722188 
922.000000	 77.786828 
921.000000	 77.846933 
920.000000	 77.898087 
919.000000	 77.948085 
918.000000	 78.002139 
917.000000	 78.054590 
916.000000	 78.102802 
915.000000	 78.155090 
914.000000	 78.216693 
913.000000	 78.281264 
912.000000	 78.344370 
911.000000	 78.412102 
910.000000	 78.488422 
909.000000	 78.567650 
908.000000	 78.647669 
907.000000	 78.736818 
906.000000	 78.839208 
905.000000	 78.946222 
904.000000	 79.050655 
903.000000	 79.156956 
902.000000	 79.270685 
901.000000	 79.390229 
900.000000	 79.514841 
899.000000	 79.647634 
898.000000	 79.783345 
897.000000	 79.907600 
896.000000	 80.015019 
895.000000	 80.115718 
894.000000	 80.217549 
893.000000	 80.314974 
892.000000	 80.402260 
891.000000	 80.484126 
890.000000	 80.565117 
889.000000	 80.640425 
888.000000	 80.705593 
887.000000	 80.764664 
886.000000	 80.821126 
885.000000	 80.871319 
884.000000	 80.914495 
883.000000	 80.959178 
882.000000	 81.012019 
881.000000	 81.070031 
880.000000	 81.130615 
879.000000	 81.198506 
878.000000	 81.275822 
877.000000	 81.356193 
876.000000	 81.435778 
875.000000	 81.519436 
874.000000	 81.610095 
873.000000	 81.703457 
872.000000	 81.798674 
871.000000	 81.902400 
870.000000	 82.016747 
869.000000	 82.134420 
868.000000	 82.250375 
867.000000	 82.367271 
866.000000	 82.485670 
865.000000	 82.600087 
864.000000	 82.708805 
863.000000	 82.817033 
862.000000	 82.926269 
861.000000	 83.030611 
860.000000	 83.127231 
859.000000	 83.220371 
858.000000	 83.311480 
857.000000	 83.395910 
856.000000	 83.473854 
855.000000	 83.554738 
854.000000	 83.645850 
853.000000	 83.745157 
852.000000	 83.849184 
851.000000	 83.958661 
850.000000	 84.072293 
849.000000	 84.183661 
848.000000	 84.288207 
847.000000	 84.385577 
846.000000	 84.472783 
845.000000	 84.543626 
844.000000	 84.596957 
843.000000	 84.636278 
842.000000	 84.658116 
841.000000	 84.649879 
840.000000	 84.603334 
839.000000	 84.523008 
838.000000	 84.418675 
837.000000	 84.297841 
836.000000	 84.169436 
835.000000	 84.045989 
834.000000	 83.936272 
833.000000	 83.842885 
832.000000	 83.771013 
831.000000	 83.729881 
830.000000	 83.720352 
829.000000	 83.731318 
828.000000	 83.754187 
827.000000	 83.790242 
826.000000	 83.838410 
825.000000	 83.889561 
824.000000	 83.940853 
823.000000	 84.001333 
822.000000	 84.074149 
821.000000	 84.146696 
820.000000	 84.205983 
819.000000	 84.251341 
818.000000	 84.286997 
817.000000	 84.313738 
816.000000	 84.333277 
815.000000	 84.351381 
814.000000	 84.370872 
813.000000	 84.388595 
812.000000	 84.403550 
811.000000	 84.420828 
810.000000	 84.443640 
809.000000	 84.467411 
808.000000	 84.482920 
807.000000	 84.478358 
806.000000	 84.440132 
805.000000	 84.364171 
804.000000	 84.268496 
803.000000	 84.182762 
802.000000	 84.121633 
801.000000	 84.078338 
800.000000	 84.045786 
799.000000	 84.028994 
798.000000	 84.031558 
797.000000	 84.045275 
796.000000	 84.061578 
795.000000	 84.080604 
794.000000	 84.100754 
793.000000	 84.110692 
792.000000	 84.100602 
791.000000	 84.072733 
790.000000	 84.033894 
789.000000	 83.985342 
788.000000	 83.925235 
787.000000	 83.852536 
786.000000	 83.763381 
785.000000	 83.652737 
784.000000	 83.524483 
783.000000	 83.390084 
782.000000	 83.252759 
781.000000	 83.103649 
780.000000	 82.939499 
779.000000	 82.773325 
778.000000	 82.621168 
777.000000	 82.488909 
776.000000	 82.378207 
775.000000	 82.293182 
774.000000	 82.233856 
773.000000	 82.194454 
772.000000	 82.174838 
771.000000	 82.182147 
770.000000	 82.215737 
769.000000	 82.263386 
768.000000	 82.318130 
767.000000	 82.385082 
766.000000	 82.465032 
765.000000	 82.545192 
764.000000	 82.613353 
763.000000	 82.667963 
762.000000	 82.707370 
761.000000	 82.722850 
760.000000	 82.710834 
759.000000	 82.679945 
758.000000	 82.637169 
757.000000	 82.577862 
756.000000	 82.497844 
755.000000	 82.404218 
754.000000	 82.304795 
753.000000	 82.196697 
752.000000	 82.074498 
751.000000	 81.941286 
750.000000	 81.804520 
749.000000	 81.670422 
748.000000	 81.548653 
747.000000	 81.451249 
746.000000	 81.379460 
745.000000	 81.322393 
744.000000	 81.275147 
743.000000	 81.246443 
742.000000	 81.242511 
741.000000	 81.257360 
740.000000	 81.286176 
739.000000	 81.333333 
738.000000	 81.398464 
737.000000	 81.469357 
736.000000	 81.537562 
735.000000	 81.607387 
734.000000	 81.681061 
733.000000	 81.749195 
732.000000	 81.805781 
731.000000	 81.859784 
730.000000	 81.921955 
729.000000	 81.993820 
728.000000	 82.081867 
727.000000	 82.205999 
726.000000	 82.371304 
725.000000	 82.537073 
724.000000	 82.634290 
723.000000	 82.619367 
722.000000	 82.507359 
721.000000	 82.360235 
720.000000	 82.247320 
719.000000	 82.200904 
718.000000	 82.201689 
717.000000	 82.211417 
716.000000	 82.211040 
715.000000	 82.201398 
714.000000	 82.179638 
713.000000	 82.132977 
712.000000	 82.056122 
711.000000	 81.957141 
710.000000	 81.842498 
709.000000	 81.713415 
708.000000	 81.581239 
707.000000	 81.467222 
706.000000	 81.378303 
705.000000	 81.301029 
704.000000	 81.229041 
703.000000	 81.175491 
702.000000	 81.148028 
701.000000	 81.131886 
700.000000	 81.110244 
699.000000	 81.083106 
698.000000	 81.052690 
697.000000	 81.009716 
696.000000	 80.949674 
695.000000	 80.885026 
694.000000	 80.828476 
693.000000	 80.779280 
692.000000	 80.736576 
691.000000	 80.709954 
690.000000	 80.701749 
689.000000	 80.696331 
688.000000	 80.682877 
687.000000	 80.670892 
686.000000	 80.669079 
685.000000	 80.670014 
684.000000	 80.669171 
683.000000	 80.674872 
682.000000	 80.686125 
681.000000	 80.685215 
680.000000	 80.665929 
679.000000	 80.644258 
678.000000	 80.627431 
677.000000	 80.597952 
676.000000	 80.549930 
675.000000	 80.504513 
674.000000	 80.474191 
673.000000	 80.442617 
672.000000	 80.402203 
671.000000	 80.384504 
670.000000	 80.442533 
669.000000	 80.612395 
668.000000	 80.810298 
667.000000	 80.826958 
666.000000	 80.691530 
665.000000	 80.557694 
664.000000	 80.469010 
663.000000	 80.429005 
662.000000	 80.422688 
661.000000	 80.415619 
660.000000	 80.394433 
659.000000	 80.379551 
658.000000	 80.378752 
657.000000	 80.362857 
656.000000	 80.315190 
655.000000	 80.257642 
654.000000	 80.206760 
653.000000	 80.144417 
652.000000	 80.062014 
651.000000	 79.990794 
650.000000	 79.954329 
649.000000	 79.929735 
648.000000	 79.895129 
647.000000	 79.868861 
646.000000	 79.864165 
645.000000	 79.855619 
644.000000	 79.824596 
643.000000	 79.790335 
642.000000	 79.768374 
641.000000	 79.742925 
640.000000	 79.710090 
639.000000	 79.698020 
638.000000	 79.708266 
637.000000	 79.693955 
636.000000	 79.636522 
635.000000	 79.581358 
634.000000	 79.559763 
633.000000	 79.540991 
632.000000	 79.502929 
631.000000	 79.472906 
630.000000	 79.458192 
629.000000	 79.414602 
628.000000	 79.334284 
627.000000	 79.285878 
626.000000	 79.307873 
625.000000	 79.336766 
624.000000	 79.318626 
623.000000	 79.300684 
622.000000	 79.331428 
621.000000	 79.363550 
620.000000	 79.349127 
619.000000	 79.331234 
618.000000	 79.349180 
617.000000	 79.353852 
616.000000	 79.320035 
615.000000	 79.312011 
614.000000	 79.344931 
613.000000	 79.328656 
612.000000	 79.228032 
611.000000	 79.140369 
610.000000	 79.136669 
609.000000	 79.153028 
608.000000	 79.131158 
607.000000	 79.112883 
606.000000	 79.123877 
605.000000	 79.111765 
604.000000	 79.072551 
603.000000	 79.085103 
602.000000	 79.155492 
601.000000	 79.175266 
600.000000	 79.100028 
599.000000	 79.020962 
598.000000	 79.000205 
597.000000	 78.975587 
596.000000	 78.908054 
595.000000	 78.863706 
594.000000	 78.861186 
593.000000	 78.794871 
592.000000	 78.634270 
591.000000	 78.538807 
590.000000	 78.619625 
589.000000	 78.746260 
588.000000	 78.753577 
587.000000	 78.632776 
586.000000	 78.424085 
585.000000	 78.106819 
584.000000	 77.746725 
583.000000	 77.562492 
582.000000	 77.611314 
581.000000	 77.614848 
580.000000	 77.389043 
579.000000	 77.156800 
578.000000	 77.166579 
577.000000	 77.277033 
576.000000	 77.309197 
575.000000	 77.403077 
574.000000	 77.652583 
573.000000	 77.778613 
572.000000	 77.563924 
571.000000	 77.207905 
570.000000	 76.988187 
569.000000	 76.833868 
568.000000	 76.623522 
567.000000	 76.498875 
566.000000	 76.509114 
565.000000	 76.406204 
564.000000	 76.160245 
563.000000	 76.125335 
562.000000	 76.369090 
561.000000	 76.390348 
560.000000	 75.934643 
559.000000	 75.446031 
558.000000	 75.376869 
557.000000	 75.485633 
556.000000	 75.438397 
555.000000	 75.371154 
554.000000	 75.356415 
553.000000	 74.956077 
552.000000	 73.978480 
551.000000	 73.060308 
550.000000	 72.838016 

