PE IR                   SPECTRUM    ASCII       PEDS        1.60        
  -1
FR220766.ASC
22/05/31
14:36:53.00
22/05/31
14:36:53.00
Administrator
Primer amarelo removido com auxilio de um estilete na superficie da Amostra denominada A 2 - Porta de passageiros - sem nenhum tratamento - IR/UATR 80N - Vitor
550.000000
20









FRONTIER FT-IR/NIR,CPU32 MAIN 00.09.1072 09-JANUARY-2014 12:55:01
MIR TGS
MIR
OPTKBR
100262
0.200000

4.000000
FORTE
RAZ„O
ESPECTRO
MAGNITUDE
UNIVERSAL ATR
DUPLO

COMBINADO


0


#HDR
-1
-1
#GR
CM-1
%T
0.00002384185791015625
0.0
4000.000000
-1.000000
3451
8
98.689378
68.657178
#DATA
4000.000000	97.793685 
3999.000000	97.793046 
3998.000000	97.793126 
3997.000000	97.793765 
3996.000000	97.794987 
3995.000000	97.796921 
3994.000000	97.799495 
3993.000000	97.802265 
3992.000000	97.804588 
3991.000000	97.805787 
3990.000000	97.805763 
3989.000000	97.805502 
3988.000000	97.806253 
3987.000000	97.808431 
3986.000000	97.810968 
3985.000000	97.811965 
3984.000000	97.810316 
3983.000000	97.806502 
3982.000000	97.802477 
3981.000000	97.800294 
3980.000000	97.800771 
3979.000000	97.803303 
3978.000000	97.806401 
3977.000000	97.808629 
3976.000000	97.809323 
3975.000000	97.808878 
3974.000000	97.808366 
3973.000000	97.808698 
3972.000000	97.810032 
3971.000000	97.811835 
3970.000000	97.813377 
3969.000000	97.814369 
3968.000000	97.815092 
3967.000000	97.816170 
3966.000000	97.818444 
3965.000000	97.822656 
3964.000000	97.828494 
3963.000000	97.834320 
3962.000000	97.837756 
3961.000000	97.837531 
3960.000000	97.835016 
3959.000000	97.832426 
3958.000000	97.830705 
3957.000000	97.829002 
3956.000000	97.826026 
3955.000000	97.821846 
3954.000000	97.817960 
3953.000000	97.816471 
3952.000000	97.819018 
3951.000000	97.825446 
3950.000000	97.833634 
3949.000000	97.840090 
3948.000000	97.841927 
3947.000000	97.838989 
3946.000000	97.833368 
3945.000000	97.828384 
3944.000000	97.826743 
3943.000000	97.829269 
3942.000000	97.834381 
3941.000000	97.839069 
3940.000000	97.841602 
3939.000000	97.841768 
3938.000000	97.840705 
3937.000000	97.840453 
3936.000000	97.842185 
3935.000000	97.846079 
3934.000000	97.851104 
3933.000000	97.855164 
3932.000000	97.855896 
3931.000000	97.851950 
3930.000000	97.845007 
3929.000000	97.837814 
3928.000000	97.831963 
3927.000000	97.828266 
3926.000000	97.827598 
3925.000000	97.829224 
3924.000000	97.830904 
3923.000000	97.831704 
3922.000000	97.831984 
3921.000000	97.832988 
3920.000000	97.835760 
3919.000000	97.840569 
3918.000000	97.846564 
3917.000000	97.850553 
3916.000000	97.850418 
3915.000000	97.847052 
3914.000000	97.842186 
3913.000000	97.837933 
3912.000000	97.835598 
3911.000000	97.835508 
3910.000000	97.836489 
3909.000000	97.836452 
3908.000000	97.834706 
3907.000000	97.833485 
3906.000000	97.836602 
3905.000000	97.846530 
3904.000000	97.859908 
3903.000000	97.869066 
3902.000000	97.869150 
3901.000000	97.862177 
3900.000000	97.854062 
3899.000000	97.849810 
3898.000000	97.850780 
3897.000000	97.854249 
3896.000000	97.857244 
3895.000000	97.859267 
3894.000000	97.860877 
3893.000000	97.863585 
3892.000000	97.866461 
3891.000000	97.867826 
3890.000000	97.868183 
3889.000000	97.867098 
3888.000000	97.865468 
3887.000000	97.864356 
3886.000000	97.863997 
3885.000000	97.863316 
3884.000000	97.859728 
3883.000000	97.852320 
3882.000000	97.842660 
3881.000000	97.835234 
3880.000000	97.834996 
3879.000000	97.841478 
3878.000000	97.849286 
3877.000000	97.851806 
3876.000000	97.848164 
3875.000000	97.843063 
3874.000000	97.840833 
3873.000000	97.843757 
3872.000000	97.851628 
3871.000000	97.862324 
3870.000000	97.872467 
3869.000000	97.879009 
3868.000000	97.883421 
3867.000000	97.887724 
3866.000000	97.891569 
3865.000000	97.893985 
3864.000000	97.893362 
3863.000000	97.890869 
3862.000000	97.889626 
3861.000000	97.890494 
3860.000000	97.891459 
3859.000000	97.890946 
3858.000000	97.889289 
3857.000000	97.887835 
3856.000000	97.888118 
3855.000000	97.889774 
3854.000000	97.892762 
3853.000000	97.895355 
3852.000000	97.892512 
3851.000000	97.889543 
3850.000000	97.889709 
3849.000000	97.891789 
3848.000000	97.892337 
3847.000000	97.890452 
3846.000000	97.887187 
3845.000000	97.883839 
3844.000000	97.881991 
3843.000000	97.880822 
3842.000000	97.878719 
3841.000000	97.875778 
3840.000000	97.871770 
3839.000000	97.866698 
3838.000000	97.862059 
3837.000000	97.860520 
3836.000000	97.863376 
3835.000000	97.867927 
3834.000000	97.871933 
3833.000000	97.875692 
3832.000000	97.880164 
3831.000000	97.885809 
3830.000000	97.891503 
3829.000000	97.895409 
3828.000000	97.896988 
3827.000000	97.897280 
3826.000000	97.897084 
3825.000000	97.896047 
3824.000000	97.893480 
3823.000000	97.888253 
3822.000000	97.882709 
3821.000000	97.880412 
3820.000000	97.880391 
3819.000000	97.880597 
3818.000000	97.879428 
3817.000000	97.878097 
3816.000000	97.878264 
3815.000000	97.881269 
3814.000000	97.887729 
3813.000000	97.896046 
3812.000000	97.903552 
3811.000000	97.909474 
3810.000000	97.914633 
3809.000000	97.920402 
3808.000000	97.925042 
3807.000000	97.924972 
3806.000000	97.917705 
3805.000000	97.904954 
3804.000000	97.891828 
3803.000000	97.882560 
3802.000000	97.878566 
3801.000000	97.877174 
3800.000000	97.877019 
3799.000000	97.879494 
3798.000000	97.884250 
3797.000000	97.890474 
3796.000000	97.897560 
3795.000000	97.903506 
3794.000000	97.906858 
3793.000000	97.907145 
3792.000000	97.905889 
3791.000000	97.905235 
3790.000000	97.906283 
3789.000000	97.908855 
3788.000000	97.911288 
3787.000000	97.911981 
3786.000000	97.910412 
3785.000000	97.907040 
3784.000000	97.902918 
3783.000000	97.899547 
3782.000000	97.897106 
3781.000000	97.896226 
3780.000000	97.898983 
3779.000000	97.905985 
3778.000000	97.914718 
3777.000000	97.921168 
3776.000000	97.923218 
3775.000000	97.921225 
3774.000000	97.917588 
3773.000000	97.915747 
3772.000000	97.917495 
3771.000000	97.922054 
3770.000000	97.925755 
3769.000000	97.926002 
3768.000000	97.923381 
3767.000000	97.921604 
3766.000000	97.923106 
3765.000000	97.926806 
3764.000000	97.929696 
3763.000000	97.929381 
3762.000000	97.925479 
3761.000000	97.918966 
3760.000000	97.911973 
3759.000000	97.907487 
3758.000000	97.907140 
3757.000000	97.911609 
3756.000000	97.919123 
3755.000000	97.928138 
3754.000000	97.938814 
3753.000000	97.954544 
3752.000000	97.977223 
3751.000000	98.000204 
3750.000000	98.010400 
3749.000000	98.004188 
3748.000000	97.988023 
3747.000000	97.968465 
3746.000000	97.949594 
3745.000000	97.933617 
3744.000000	97.925381 
3743.000000	97.926526 
3742.000000	97.933452 
3741.000000	97.942464 
3740.000000	97.950446 
3739.000000	97.954247 
3738.000000	97.951523 
3737.000000	97.942777 
3736.000000	97.933192 
3735.000000	97.928153 
3734.000000	97.932023 
3733.000000	97.944393 
3732.000000	97.955896 
3731.000000	97.959470 
3730.000000	97.957129 
3729.000000	97.954944 
3728.000000	97.956821 
3727.000000	97.960840 
3726.000000	97.961581 
3725.000000	97.954755 
3724.000000	97.941440 
3723.000000	97.926577 
3722.000000	97.915393 
3721.000000	97.910237 
3720.000000	97.909677 
3719.000000	97.911514 
3718.000000	97.914344 
3717.000000	97.917039 
3716.000000	97.918688 
3715.000000	97.919054 
3714.000000	97.918048 
3713.000000	97.915585 
3712.000000	97.909587 
3711.000000	97.898014 
3710.000000	97.884932 
3709.000000	97.878500 
3708.000000	97.879254 
3707.000000	97.880417 
3706.000000	97.876140 
3705.000000	97.863722 
3704.000000	97.843608 
3703.000000	97.819505 
3702.000000	97.796984 
3701.000000	97.780931 
3700.000000	97.772181 
3699.000000	97.769120 
3698.000000	97.770172 
3697.000000	97.774478 
3696.000000	97.780998 
3695.000000	97.787853 
3694.000000	97.792208 
3693.000000	97.791785 
3692.000000	97.787990 
3691.000000	97.785805 
3690.000000	97.788468 
3689.000000	97.792740 
3688.000000	97.794074 
3687.000000	97.790971 
3686.000000	97.783930 
3685.000000	97.773271 
3684.000000	97.757471 
3683.000000	97.732710 
3682.000000	97.693527 
3681.000000	97.635540 
3680.000000	97.558940 
3679.000000	97.467586 
3678.000000	97.362482 
3677.000000	97.238330 
3676.000000	97.101791 
3675.000000	96.996451 
3674.000000	96.966958 
3673.000000	97.003834 
3672.000000	97.076846 
3671.000000	97.165097 
3670.000000	97.248548 
3669.000000	97.309096 
3668.000000	97.346772 
3667.000000	97.370952 
3666.000000	97.386822 
3665.000000	97.396154 
3664.000000	97.400333 
3663.000000	97.400528 
3662.000000	97.397716 
3661.000000	97.393660 
3660.000000	97.391131 
3659.000000	97.391929 
3658.000000	97.394802 
3657.000000	97.395003 
3656.000000	97.387551 
3655.000000	97.372166 
3654.000000	97.352603 
3653.000000	97.332152 
3652.000000	97.313887 
3651.000000	97.303232 
3650.000000	97.302563 
3649.000000	97.296459 
3648.000000	97.273727 
3647.000000	97.248777 
3646.000000	97.236337 
3645.000000	97.235761 
3644.000000	97.238951 
3643.000000	97.238635 
3642.000000	97.230451 
3641.000000	97.214851 
3640.000000	97.196308 
3639.000000	97.180000 
3638.000000	97.168321 
3637.000000	97.159800 
3636.000000	97.151049 
3635.000000	97.139957 
3634.000000	97.128019 
3633.000000	97.119233 
3632.000000	97.116211 
3631.000000	97.116431 
3630.000000	97.113925 
3629.000000	97.102940 
3628.000000	97.085886 
3627.000000	97.073755 
3626.000000	97.069543 
3625.000000	97.070635 
3624.000000	97.074975 
3623.000000	97.081842 
3622.000000	97.089691 
3621.000000	97.094860 
3620.000000	97.093549 
3619.000000	97.087315 
3618.000000	97.082872 
3617.000000	97.085490 
3616.000000	97.095439 
3615.000000	97.109765 
3614.000000	97.125175 
3613.000000	97.140019 
3612.000000	97.154583 
3611.000000	97.167896 
3610.000000	97.174920 
3609.000000	97.170442 
3608.000000	97.155837 
3607.000000	97.141004 
3606.000000	97.135779 
3605.000000	97.141184 
3604.000000	97.151525 
3603.000000	97.160406 
3602.000000	97.163329 
3601.000000	97.157582 
3600.000000	97.144066 
3599.000000	97.128301 
3598.000000	97.115953 
3597.000000	97.108221 
3596.000000	97.103657 
3595.000000	97.099827 
3594.000000	97.095401 
3593.000000	97.091086 
3592.000000	97.087820 
3591.000000	97.084896 
3590.000000	97.080685 
3589.000000	97.073125 
3588.000000	97.060210 
3587.000000	97.041515 
3586.000000	97.022939 
3585.000000	97.011920 
3584.000000	97.007640 
3583.000000	97.004943 
3582.000000	96.999776 
3581.000000	96.989787 
3580.000000	96.975516 
3579.000000	96.959936 
3578.000000	96.946334 
3577.000000	96.936219 
3576.000000	96.929287 
3575.000000	96.924487 
3574.000000	96.920746 
3573.000000	96.917701 
3572.000000	96.915256 
3571.000000	96.912723 
3570.000000	96.908717 
3569.000000	96.902289 
3568.000000	96.891685 
3567.000000	96.872254 
3566.000000	96.844626 
3565.000000	96.820781 
3564.000000	96.808997 
3563.000000	96.805970 
3562.000000	96.804752 
3561.000000	96.801688 
3560.000000	96.796846 
3559.000000	96.792096 
3558.000000	96.787898 
3557.000000	96.782664 
3556.000000	96.774834 
3555.000000	96.764426 
3554.000000	96.752210 
3553.000000	96.739315 
3552.000000	96.728073 
3551.000000	96.721566 
3550.000000	96.721052 
3549.000000	96.724343 
3548.000000	96.726885 
3547.000000	96.723816 
3546.000000	96.711576 
3545.000000	96.691247 
3544.000000	96.669964 
3543.000000	96.654703 
3542.000000	96.646917 
3541.000000	96.643936 
3540.000000	96.642069 
3539.000000	96.638727 
3538.000000	96.632251 
3537.000000	96.621694 
3536.000000	96.608124 
3535.000000	96.594341 
3534.000000	96.582986 
3533.000000	96.574718 
3532.000000	96.568779 
3531.000000	96.564080 
3530.000000	96.559807 
3529.000000	96.555260 
3528.000000	96.550201 
3527.000000	96.544565 
3526.000000	96.537640 
3525.000000	96.527855 
3524.000000	96.514246 
3523.000000	96.498156 
3522.000000	96.482747 
3521.000000	96.470462 
3520.000000	96.461073 
3519.000000	96.452627 
3518.000000	96.443617 
3517.000000	96.433541 
3516.000000	96.422700 
3515.000000	96.411488 
3514.000000	96.400360 
3513.000000	96.390064 
3512.000000	96.381391 
3511.000000	96.374041 
3510.000000	96.366458 
3509.000000	96.357010 
3508.000000	96.345919 
3507.000000	96.334933 
3506.000000	96.325177 
3505.000000	96.316534 
3504.000000	96.307920 
3503.000000	96.297544 
3502.000000	96.284861 
3501.000000	96.271399 
3500.000000	96.258600 
3499.000000	96.246477 
3498.000000	96.234350 
3497.000000	96.221896 
3496.000000	96.209475 
3495.000000	96.197475 
3494.000000	96.185929 
3493.000000	96.174839 
3492.000000	96.164290 
3491.000000	96.154184 
3490.000000	96.144343 
3489.000000	96.134938 
3488.000000	96.126497 
3487.000000	96.118979 
3486.000000	96.111056 
3485.000000	96.101244 
3484.000000	96.089782 
3483.000000	96.078396 
3482.000000	96.068357 
3481.000000	96.059112 
3480.000000	96.049376 
3479.000000	96.038751 
3478.000000	96.027648 
3477.000000	96.016494 
3476.000000	96.005353 
3475.000000	95.993782 
3474.000000	95.981062 
3473.000000	95.967177 
3472.000000	95.953305 
3471.000000	95.940931 
3470.000000	95.930448 
3469.000000	95.921003 
3468.000000	95.911820 
3467.000000	95.903159 
3466.000000	95.895286 
3465.000000	95.887247 
3464.000000	95.877547 
3463.000000	95.865855 
3462.000000	95.853545 
3461.000000	95.842141 
3460.000000	95.831715 
3459.000000	95.821117 
3458.000000	95.809555 
3457.000000	95.797732 
3456.000000	95.787242 
3455.000000	95.778684 
3454.000000	95.771231 
3453.000000	95.763711 
3452.000000	95.755992 
3451.000000	95.748223 
3450.000000	95.739377 
3449.000000	95.727692 
3448.000000	95.712797 
3447.000000	95.697086 
3446.000000	95.684228 
3445.000000	95.675648 
3444.000000	95.669027 
3443.000000	95.660762 
3442.000000	95.649349 
3441.000000	95.636506 
3440.000000	95.625023 
3439.000000	95.615838 
3438.000000	95.607849 
3437.000000	95.599919 
3436.000000	95.591893 
3435.000000	95.583552 
3434.000000	95.574238 
3433.000000	95.563731 
3432.000000	95.552940 
3431.000000	95.542524 
3430.000000	95.531788 
3429.000000	95.520046 
3428.000000	95.508305 
3427.000000	95.498614 
3426.000000	95.491953 
3425.000000	95.487561 
3424.000000	95.483715 
3423.000000	95.478421 
3422.000000	95.470009 
3421.000000	95.458278 
3420.000000	95.444935 
3419.000000	95.431887 
3418.000000	95.419659 
3417.000000	95.408195 
3416.000000	95.398373 
3415.000000	95.391417 
3414.000000	95.386988 
3413.000000	95.383009 
3412.000000	95.377475 
3411.000000	95.369868 
3410.000000	95.360985 
3409.000000	95.352134 
3408.000000	95.344318 
3407.000000	95.337647 
3406.000000	95.331396 
3405.000000	95.324964 
3404.000000	95.318467 
3403.000000	95.312171 
3402.000000	95.306203 
3401.000000	95.301048 
3400.000000	95.297625 
3399.000000	95.295965 
3398.000000	95.294490 
3397.000000	95.291434 
3396.000000	95.286662 
3395.000000	95.281315 
3394.000000	95.275999 
3393.000000	95.270435 
3392.000000	95.264637 
3391.000000	95.259379 
3390.000000	95.255294 
3389.000000	95.252298 
3388.000000	95.249871 
3387.000000	95.247365 
3386.000000	95.244160 
3385.000000	95.240152 
3384.000000	95.236105 
3383.000000	95.232815 
3382.000000	95.230132 
3381.000000	95.227192 
3380.000000	95.223682 
3379.000000	95.220167 
3378.000000	95.217266 
3377.000000	95.215060 
3376.000000	95.213357 
3375.000000	95.211954 
3374.000000	95.210313 
3373.000000	95.207520 
3372.000000	95.202925 
3371.000000	95.196878 
3370.000000	95.190740 
3369.000000	95.186221 
3368.000000	95.184261 
3367.000000	95.184157 
3366.000000	95.183962 
3365.000000	95.182187 
3364.000000	95.179053 
3363.000000	95.175908 
3362.000000	95.173789 
3361.000000	95.172996 
3360.000000	95.173499 
3359.000000	95.174901 
3358.000000	95.176244 
3357.000000	95.176700 
3356.000000	95.176418 
3355.000000	95.176050 
3354.000000	95.175585 
3353.000000	95.174477 
3352.000000	95.172753 
3351.000000	95.171168 
3350.000000	95.170210 
3349.000000	95.169861 
3348.000000	95.170319 
3347.000000	95.172015 
3346.000000	95.174654 
3345.000000	95.177015 
3344.000000	95.178287 
3343.000000	95.178831 
3342.000000	95.179405 
3341.000000	95.180223 
3340.000000	95.181098 
3339.000000	95.181877 
3338.000000	95.182335 
3337.000000	95.182274 
3336.000000	95.182154 
3335.000000	95.182890 
3334.000000	95.184518 
3333.000000	95.185845 
3332.000000	95.186183 
3331.000000	95.186695 
3330.000000	95.189052 
3329.000000	95.193043 
3328.000000	95.196513 
3327.000000	95.197725 
3326.000000	95.197005 
3325.000000	95.195826 
3324.000000	95.195278 
3323.000000	95.195882 
3322.000000	95.198256 
3321.000000	95.202956 
3320.000000	95.209666 
3319.000000	95.217067 
3318.000000	95.223640 
3317.000000	95.228396 
3316.000000	95.231162 
3315.000000	95.232649 
3314.000000	95.234225 
3313.000000	95.236937 
3312.000000	95.240466 
3311.000000	95.243611 
3310.000000	95.246154 
3309.000000	95.249550 
3308.000000	95.255033 
3307.000000	95.261478 
3306.000000	95.266202 
3305.000000	95.267974 
3304.000000	95.268445 
3303.000000	95.270431 
3302.000000	95.275434 
3301.000000	95.282820 
3300.000000	95.290583 
3299.000000	95.296485 
3298.000000	95.299516 
3297.000000	95.300951 
3296.000000	95.303642 
3295.000000	95.309531 
3294.000000	95.318046 
3293.000000	95.327206 
3292.000000	95.335649 
3291.000000	95.343004 
3290.000000	95.348943 
3289.000000	95.352999 
3288.000000	95.355438 
3287.000000	95.357544 
3286.000000	95.360735 
3285.000000	95.365597 
3284.000000	95.371703 
3283.000000	95.378026 
3282.000000	95.383598 
3281.000000	95.388321 
3280.000000	95.393131 
3279.000000	95.399125 
3278.000000	95.406505 
3277.000000	95.414378 
3276.000000	95.421542 
3275.000000	95.427413 
3274.000000	95.432570 
3273.000000	95.438492 
3272.000000	95.446299 
3271.000000	95.455383 
3270.000000	95.463827 
3269.000000	95.470540 
3268.000000	95.476472 
3267.000000	95.483146 
3266.000000	95.490485 
3265.000000	95.496998 
3264.000000	95.502026 
3263.000000	95.506804 
3262.000000	95.512793 
3261.000000	95.519905 
3260.000000	95.526829 
3259.000000	95.532840 
3258.000000	95.538601 
3257.000000	95.545180 
3256.000000	95.552863 
3255.000000	95.561224 
3254.000000	95.570107 
3253.000000	95.579880 
3252.000000	95.590626 
3251.000000	95.601340 
3250.000000	95.610694 
3249.000000	95.618546 
3248.000000	95.626036 
3247.000000	95.633953 
3246.000000	95.641577 
3245.000000	95.647773 
3244.000000	95.652941 
3243.000000	95.658973 
3242.000000	95.667126 
3241.000000	95.676800 
3240.000000	95.686576 
3239.000000	95.695885 
3238.000000	95.705157 
3237.000000	95.714777 
3236.000000	95.724429 
3235.000000	95.733461 
3234.000000	95.741612 
3233.000000	95.749265 
3232.000000	95.757243 
3231.000000	95.766015 
3230.000000	95.774888 
3229.000000	95.782179 
3228.000000	95.786646 
3227.000000	95.789002 
3226.000000	95.791721 
3225.000000	95.797068 
3224.000000	95.805409 
3223.000000	95.815422 
3222.000000	95.825536 
3221.000000	95.835001 
3220.000000	95.843832 
3219.000000	95.852483 
3218.000000	95.861516 
3217.000000	95.871064 
3216.000000	95.880281 
3215.000000	95.887893 
3214.000000	95.893747 
3213.000000	95.899420 
3212.000000	95.906631 
3211.000000	95.915231 
3210.000000	95.923539 
3209.000000	95.930655 
3208.000000	95.937436 
3207.000000	95.944908 
3206.000000	95.952665 
3205.000000	95.959750 
3204.000000	95.966432 
3203.000000	95.974165 
3202.000000	95.983699 
3201.000000	95.994062 
3200.000000	96.003399 
3199.000000	96.010542 
3198.000000	96.015843 
3197.000000	96.021089 
3196.000000	96.028387 
3195.000000	96.038455 
3194.000000	96.049893 
3193.000000	96.060479 
3192.000000	96.069178 
3191.000000	96.076570 
3190.000000	96.083745 
3189.000000	96.091531 
3188.000000	96.100626 
3187.000000	96.111305 
3186.000000	96.122337 
3185.000000	96.131404 
3184.000000	96.137512 
3183.000000	96.142731 
3182.000000	96.150426 
3181.000000	96.161845 
3180.000000	96.175092 
3179.000000	96.187391 
3178.000000	96.197658 
3177.000000	96.206542 
3176.000000	96.214608 
3175.000000	96.221487 
3174.000000	96.227086 
3173.000000	96.232786 
3172.000000	96.240614 
3171.000000	96.251120 
3170.000000	96.262702 
3169.000000	96.273234 
3168.000000	96.281863 
3167.000000	96.288976 
3166.000000	96.295074 
3165.000000	96.300660 
3164.000000	96.306855 
3163.000000	96.315072 
3162.000000	96.325609 
3161.000000	96.337070 
3160.000000	96.347493 
3159.000000	96.355860 
3158.000000	96.362539 
3157.000000	96.368716 
3156.000000	96.375485 
3155.000000	96.383138 
3154.000000	96.391224 
3153.000000	96.399477 
3152.000000	96.408344 
3151.000000	96.418098 
3150.000000	96.427834 
3149.000000	96.436203 
3148.000000	96.443162 
3147.000000	96.450170 
3146.000000	96.458385 
3145.000000	96.467426 
3144.000000	96.476155 
3143.000000	96.483890 
3142.000000	96.490451 
3141.000000	96.495624 
3140.000000	96.499495 
3139.000000	96.503009 
3138.000000	96.507561 
3137.000000	96.513728 
3136.000000	96.520711 
3135.000000	96.527014 
3134.000000	96.531601 
3133.000000	96.534562 
3132.000000	96.537079 
3131.000000	96.540557 
3130.000000	96.545541 
3129.000000	96.551454 
3128.000000	96.557422 
3127.000000	96.563036 
3126.000000	96.568363 
3125.000000	96.573601 
3124.000000	96.578898 
3123.000000	96.584427 
3122.000000	96.590477 
3121.000000	96.597509 
3120.000000	96.605842 
3119.000000	96.614822 
3118.000000	96.622647 
3117.000000	96.627537 
3116.000000	96.629225 
3115.000000	96.629078 
3114.000000	96.628963 
3113.000000	96.630426 
3112.000000	96.634523 
3111.000000	96.641079 
3110.000000	96.648063 
3109.000000	96.652722 
3108.000000	96.653888 
3107.000000	96.652554 
3106.000000	96.650133 
3105.000000	96.647166 
3104.000000	96.643943 
3103.000000	96.641323 
3102.000000	96.639970 
3101.000000	96.639501 
3100.000000	96.639035 
3099.000000	96.638533 
3098.000000	96.639067 
3097.000000	96.641845 
3096.000000	96.647174 
3095.000000	96.654209 
3094.000000	96.661596 
3093.000000	96.668372 
3092.000000	96.674226 
3091.000000	96.678978 
3090.000000	96.682359 
3089.000000	96.684483 
3088.000000	96.686130 
3087.000000	96.687879 
3086.000000	96.689142 
3085.000000	96.688853 
3084.000000	96.686979 
3083.000000	96.684677 
3082.000000	96.682766 
3081.000000	96.680694 
3080.000000	96.677309 
3079.000000	96.672224 
3078.000000	96.666034 
3077.000000	96.659552 
3076.000000	96.653121 
3075.000000	96.646466 
3074.000000	96.639203 
3073.000000	96.631431 
3072.000000	96.623701 
3071.000000	96.616126 
3070.000000	96.607900 
3069.000000	96.598308 
3068.000000	96.588021 
3067.000000	96.578775 
3066.000000	96.571862 
3065.000000	96.567349 
3064.000000	96.564501 
3063.000000	96.562215 
3062.000000	96.559109 
3061.000000	96.554277 
3060.000000	96.548290 
3059.000000	96.543050 
3058.000000	96.540379 
3057.000000	96.540926 
3056.000000	96.544466 
3055.000000	96.550280 
3054.000000	96.557114 
3053.000000	96.563318 
3052.000000	96.567902 
3051.000000	96.571406 
3050.000000	96.575200 
3049.000000	96.579812 
3048.000000	96.584044 
3047.000000	96.585876 
3046.000000	96.584170 
3045.000000	96.579466 
3044.000000	96.573218 
3043.000000	96.566420 
3042.000000	96.559032 
3041.000000	96.550865 
3040.000000	96.542631 
3039.000000	96.535948 
3038.000000	96.532333 
3037.000000	96.532636 
3036.000000	96.537596 
3035.000000	96.548370 
3034.000000	96.565916 
3033.000000	96.589584 
3032.000000	96.616724 
3031.000000	96.644228 
3030.000000	96.670703 
3029.000000	96.697303 
3028.000000	96.726111 
3027.000000	96.757913 
3026.000000	96.791128 
3025.000000	96.822777 
3024.000000	96.850479 
3023.000000	96.873502 
3022.000000	96.892325 
3021.000000	96.907571 
3020.000000	96.919497 
3019.000000	96.928413 
3018.000000	96.935123 
3017.000000	96.940597 
3016.000000	96.944931 
3015.000000	96.947101 
3014.000000	96.946090 
3013.000000	96.942064 
3012.000000	96.936017 
3011.000000	96.928516 
3010.000000	96.919476 
3009.000000	96.909031 
3008.000000	96.897899 
3007.000000	96.886678 
3006.000000	96.875370 
3005.000000	96.863712 
3004.000000	96.851437 
3003.000000	96.838079 
3002.000000	96.823190 
3001.000000	96.807113 
3000.000000	96.790845 
2999.000000	96.774708 
2998.000000	96.757543 
2997.000000	96.737528 
2996.000000	96.713340 
2995.000000	96.684310 
2994.000000	96.650247 
2993.000000	96.611591 
2992.000000	96.569092 
2991.000000	96.522562 
2990.000000	96.470394 
2989.000000	96.410883 
2988.000000	96.343997 
2987.000000	96.271212 
2986.000000	96.193887 
2985.000000	96.112186 
2984.000000	96.025498 
2983.000000	95.933272 
2982.000000	95.835415 
2981.000000	95.732318 
2980.000000	95.624574 
2979.000000	95.512515 
2978.000000	95.396065 
2977.000000	95.275235 
2976.000000	95.150618 
2975.000000	95.023374 
2974.000000	94.894845 
2973.000000	94.766211 
2972.000000	94.638296 
2971.000000	94.512008 
2970.000000	94.389403 
2969.000000	94.274093 
2968.000000	94.169737 
2967.000000	94.077858 
2966.000000	93.997829 
2965.000000	93.929110 
2964.000000	93.872896 
2963.000000	93.830807 
2962.000000	93.802544 
2961.000000	93.785220 
2960.000000	93.774911 
2959.000000	93.768439 
2958.000000	93.764263 
2957.000000	93.762312 
2956.000000	93.762933 
2955.000000	93.765694 
2954.000000	93.768930 
2953.000000	93.770187 
2952.000000	93.766522 
2951.000000	93.754475 
2950.000000	93.730884 
2949.000000	93.694459 
2948.000000	93.646201 
2947.000000	93.587506 
2946.000000	93.518376 
2945.000000	93.437882 
2944.000000	93.345880 
2943.000000	93.243246 
2942.000000	93.130844 
2941.000000	93.009123 
2940.000000	92.878698 
2939.000000	92.740521 
2938.000000	92.595521 
2937.000000	92.444927 
2936.000000	92.291336 
2935.000000	92.138809 
2934.000000	91.991276 
2933.000000	91.851178 
2932.000000	91.719688 
2931.000000	91.598165 
2930.000000	91.489268 
2929.000000	91.396566 
2928.000000	91.323139 
2927.000000	91.270489 
2926.000000	91.238740 
2925.000000	91.227841 
2924.000000	91.238502 
2923.000000	91.271910 
2922.000000	91.328488 
2921.000000	91.406898 
2920.000000	91.504127 
2919.000000	91.616360 
2918.000000	91.739491 
2917.000000	91.869107 
2916.000000	92.000746 
2915.000000	92.131053 
2914.000000	92.258632 
2913.000000	92.383502 
2912.000000	92.505422 
2911.000000	92.623061 
2910.000000	92.734943 
2909.000000	92.840646 
2908.000000	92.940808 
2907.000000	93.035991 
2906.000000	93.126254 
2905.000000	93.211962 
2904.000000	93.294357 
2903.000000	93.374513 
2902.000000	93.452025 
2901.000000	93.524387 
2900.000000	93.589879 
2899.000000	93.648453 
2898.000000	93.701701 
2897.000000	93.751346 
2896.000000	93.798052 
2895.000000	93.841346 
2894.000000	93.880604 
2893.000000	93.916278 
2892.000000	93.949975 
2891.000000	93.983081 
2890.000000	94.015143 
2889.000000	94.044200 
2888.000000	94.068855 
2887.000000	94.089862 
2886.000000	94.109412 
2885.000000	94.128829 
2884.000000	94.146978 
2883.000000	94.160556 
2882.000000	94.166054 
2881.000000	94.161627 
2880.000000	94.147524 
2879.000000	94.124894 
2878.000000	94.094498 
2877.000000	94.056658 
2876.000000	94.012142 
2875.000000	93.962574 
2874.000000	93.910160 
2873.000000	93.857735 
2872.000000	93.809179 
2871.000000	93.768982 
2870.000000	93.740464 
2869.000000	93.724050 
2868.000000	93.717108 
2867.000000	93.715398 
2866.000000	93.714315 
2865.000000	93.709576 
2864.000000	93.697603 
2863.000000	93.676071 
2862.000000	93.643961 
2861.000000	93.601266 
2860.000000	93.549083 
2859.000000	93.490482 
2858.000000	93.431042 
2857.000000	93.377463 
2856.000000	93.335634 
2855.000000	93.309820 
2854.000000	93.303657 
2853.000000	93.320600 
2852.000000	93.362676 
2851.000000	93.428910 
2850.000000	93.515931 
2849.000000	93.619883 
2848.000000	93.737706 
2847.000000	93.866483 
2846.000000	94.002539 
2845.000000	94.141730 
2844.000000	94.280756 
2843.000000	94.417699 
2842.000000	94.551244 
2841.000000	94.679525 
2840.000000	94.800135 
2839.000000	94.911387 
2838.000000	95.013210 
2837.000000	95.106571 
2836.000000	95.192038 
2835.000000	95.269310 
2834.000000	95.338441 
2833.000000	95.401071 
2832.000000	95.459637 
2831.000000	95.515212 
2830.000000	95.566781 
2829.000000	95.612880 
2828.000000	95.653610 
2827.000000	95.690641 
2826.000000	95.725873 
2825.000000	95.760681 
2824.000000	95.795710 
2823.000000	95.830533 
2822.000000	95.863708 
2821.000000	95.894169 
2820.000000	95.922704 
2819.000000	95.951219 
2818.000000	95.980532 
2817.000000	96.009595 
2816.000000	96.037118 
2815.000000	96.063241 
2814.000000	96.089146 
2813.000000	96.115602 
2812.000000	96.142517 
2811.000000	96.169488 
2810.000000	96.196084 
2809.000000	96.221700 
2808.000000	96.245644 
2807.000000	96.267708 
2806.000000	96.288539 
2805.000000	96.309340 
2804.000000	96.331091 
2803.000000	96.353962 
2802.000000	96.377476 
2801.000000	96.401165 
2800.000000	96.424869 
2799.000000	96.448323 
2798.000000	96.470838 
2797.000000	96.491858 
2796.000000	96.511696 
2795.000000	96.531263 
2794.000000	96.550950 
2793.000000	96.570086 
2792.000000	96.587633 
2791.000000	96.603257 
2790.000000	96.617696 
2789.000000	96.632293 
2788.000000	96.648061 
2787.000000	96.664915 
2786.000000	96.681683 
2785.000000	96.697034 
2784.000000	96.710471 
2783.000000	96.722553 
2782.000000	96.734357 
2781.000000	96.746733 
2780.000000	96.759770 
2779.000000	96.772682 
2778.000000	96.784406 
2777.000000	96.794635 
2776.000000	96.804085 
2775.000000	96.813509 
2774.000000	96.822768 
2773.000000	96.831171 
2772.000000	96.838468 
2771.000000	96.845127 
2770.000000	96.851786 
2769.000000	96.858858 
2768.000000	96.866551 
2767.000000	96.874892 
2766.000000	96.883616 
2765.000000	96.892251 
2764.000000	96.900349 
2763.000000	96.907611 
2762.000000	96.914008 
2761.000000	96.919849 
2760.000000	96.925443 
2759.000000	96.930647 
2758.000000	96.935143 
2757.000000	96.939275 
2756.000000	96.944163 
2755.000000	96.950706 
2754.000000	96.958910 
2753.000000	96.968162 
2752.000000	96.977558 
2751.000000	96.985870 
2750.000000	96.992120 
2749.000000	96.996715 
2748.000000	97.001235 
2747.000000	97.006513 
2746.000000	97.011792 
2745.000000	97.016350 
2744.000000	97.020991 
2743.000000	97.026864 
2742.000000	97.033549 
2741.000000	97.039475 
2740.000000	97.043681 
2739.000000	97.046127 
2738.000000	97.046873 
2737.000000	97.046378 
2736.000000	97.046358 
2735.000000	97.048848 
2734.000000	97.054175 
2733.000000	97.060653 
2732.000000	97.066245 
2731.000000	97.069806 
2730.000000	97.071230 
2729.000000	97.071601 
2728.000000	97.073015 
2727.000000	97.076892 
2726.000000	97.082403 
2725.000000	97.087562 
2724.000000	97.091852 
2723.000000	97.096523 
2722.000000	97.102318 
2721.000000	97.108355 
2720.000000	97.113746 
2719.000000	97.118941 
2718.000000	97.124726 
2717.000000	97.130883 
2716.000000	97.136654 
2715.000000	97.141910 
2714.000000	97.147203 
2713.000000	97.153067 
2712.000000	97.159679 
2711.000000	97.166757 
2710.000000	97.173577 
2709.000000	97.179579 
2708.000000	97.185062 
2707.000000	97.190679 
2706.000000	97.196245 
2705.000000	97.200951 
2704.000000	97.204893 
2703.000000	97.209384 
2702.000000	97.215136 
2701.000000	97.221088 
2700.000000	97.225709 
2699.000000	97.228936 
2698.000000	97.232069 
2697.000000	97.236126 
2696.000000	97.240952 
2695.000000	97.245757 
2694.000000	97.250018 
2693.000000	97.253796 
2692.000000	97.257385 
2691.000000	97.260739 
2690.000000	97.263467 
2689.000000	97.265635 
2688.000000	97.268258 
2687.000000	97.272441 
2686.000000	97.278141 
2685.000000	97.284326 
2684.000000	97.290220 
2683.000000	97.295645 
2682.000000	97.300328 
2681.000000	97.303883 
2680.000000	97.306731 
2679.000000	97.310087 
2678.000000	97.314542 
2677.000000	97.319326 
2676.000000	97.323430 
2675.000000	97.326932 
2674.000000	97.330736 
2673.000000	97.335415 
2672.000000	97.340705 
2671.000000	97.345752 
2670.000000	97.349579 
2669.000000	97.351595 
2668.000000	97.351971 
2667.000000	97.351274 
2666.000000	97.349654 
2665.000000	97.346761 
2664.000000	97.342568 
2663.000000	97.337865 
2662.000000	97.333677 
2661.000000	97.330403 
2660.000000	97.327656 
2659.000000	97.324768 
2658.000000	97.321556 
2657.000000	97.318736 
2656.000000	97.317398 
2655.000000	97.317746 
2654.000000	97.318715 
2653.000000	97.319313 
2652.000000	97.319914 
2651.000000	97.321529 
2650.000000	97.324079 
2649.000000	97.326354 
2648.000000	97.327543 
2647.000000	97.327979 
2646.000000	97.328461 
2645.000000	97.329737 
2644.000000	97.332554 
2643.000000	97.337070 
2642.000000	97.342094 
2641.000000	97.345988 
2640.000000	97.348604 
2639.000000	97.351232 
2638.000000	97.354411 
2637.000000	97.356992 
2636.000000	97.358001 
2635.000000	97.358359 
2634.000000	97.359921 
2633.000000	97.363551 
2632.000000	97.368680 
2631.000000	97.374104 
2630.000000	97.378614 
2629.000000	97.381588 
2628.000000	97.383680 
2627.000000	97.386331 
2626.000000	97.390076 
2625.000000	97.394007 
2624.000000	97.397478 
2623.000000	97.401412 
2622.000000	97.406900 
2621.000000	97.412999 
2620.000000	97.417127 
2619.000000	97.417667 
2618.000000	97.415426 
2617.000000	97.412572 
2616.000000	97.410841 
2615.000000	97.410948 
2614.000000	97.413014 
2613.000000	97.416837 
2612.000000	97.421767 
2611.000000	97.426878 
2610.000000	97.431772 
2609.000000	97.437059 
2608.000000	97.443395 
2607.000000	97.449967 
2606.000000	97.454711 
2605.000000	97.456587 
2604.000000	97.456960 
2603.000000	97.457906 
2602.000000	97.459702 
2601.000000	97.460882 
2600.000000	97.460384 
2599.000000	97.458608 
2598.000000	97.456625 
2597.000000	97.455443 
2596.000000	97.455938 
2595.000000	97.458397 
2594.000000	97.461947 
2593.000000	97.465232 
2592.000000	97.467827 
2591.000000	97.470414 
2590.000000	97.473704 
2589.000000	97.477906 
2588.000000	97.482901 
2587.000000	97.488068 
2586.000000	97.492308 
2585.000000	97.495183 
2584.000000	97.497724 
2583.000000	97.501066 
2582.000000	97.504785 
2581.000000	97.507873 
2580.000000	97.510862 
2579.000000	97.515241 
2578.000000	97.520798 
2577.000000	97.525205 
2576.000000	97.526631 
2575.000000	97.525498 
2574.000000	97.523536 
2573.000000	97.522467 
2572.000000	97.523623 
2571.000000	97.527286 
2570.000000	97.531950 
2569.000000	97.535438 
2568.000000	97.537045 
2567.000000	97.537564 
2566.000000	97.537452 
2565.000000	97.536680 
2564.000000	97.536279 
2563.000000	97.537858 
2562.000000	97.541035 
2561.000000	97.543366 
2560.000000	97.543705 
2559.000000	97.543826 
2558.000000	97.545666 
2557.000000	97.548734 
2556.000000	97.551592 
2555.000000	97.554370 
2554.000000	97.557989 
2553.000000	97.561927 
2552.000000	97.564620 
2551.000000	97.565752 
2550.000000	97.566647 
2549.000000	97.568335 
2548.000000	97.570351 
2547.000000	97.571610 
2546.000000	97.571692 
2545.000000	97.571002 
2544.000000	97.570164 
2543.000000	97.569651 
2542.000000	97.570033 
2541.000000	97.572279 
2540.000000	97.577132 
2539.000000	97.583807 
2538.000000	97.589882 
2537.000000	97.593245 
2536.000000	97.593931 
2535.000000	97.593552 
2534.000000	97.593544 
2533.000000	97.594848 
2532.000000	97.598342 
2531.000000	97.603880 
2530.000000	97.609259 
2529.000000	97.612093 
2528.000000	97.613002 
2527.000000	97.615213 
2526.000000	97.620447 
2525.000000	97.626866 
2524.000000	97.631837 
2523.000000	97.635181 
2522.000000	97.638480 
2521.000000	97.642315 
2520.000000	97.645669 
2519.000000	97.647827 
2518.000000	97.649710 
2517.000000	97.653040 
2516.000000	97.658473 
2515.000000	97.664635 
2514.000000	97.669102 
2513.000000	97.670617 
2512.000000	97.670293 
2511.000000	97.670342 
2510.000000	97.671924 
2509.000000	97.674669 
2508.000000	97.677711 
2507.000000	97.680291 
2506.000000	97.681773 
2505.000000	97.682209 
2504.000000	97.682857 
2503.000000	97.685092 
2502.000000	97.688703 
2501.000000	97.691990 
2500.000000	97.693481 
2499.000000	97.692924 
2498.000000	97.690993 
2497.000000	97.689056 
2496.000000	97.688791 
2495.000000	97.690678 
2494.000000	97.692912 
2493.000000	97.693086 
2492.000000	97.691179 
2491.000000	97.689810 
2490.000000	97.691331 
2489.000000	97.695491 
2488.000000	97.700068 
2487.000000	97.703033 
2486.000000	97.704115 
2485.000000	97.704942 
2484.000000	97.707538 
2483.000000	97.712076 
2482.000000	97.716499 
2481.000000	97.719034 
2480.000000	97.720289 
2479.000000	97.721778 
2478.000000	97.723332 
2477.000000	97.723756 
2476.000000	97.723525 
2475.000000	97.724726 
2474.000000	97.728125 
2473.000000	97.732103 
2472.000000	97.734912 
2471.000000	97.736429 
2470.000000	97.737121 
2469.000000	97.736729 
2468.000000	97.734933 
2467.000000	97.732499 
2466.000000	97.731037 
2465.000000	97.731842 
2464.000000	97.734995 
2463.000000	97.739151 
2462.000000	97.742371 
2461.000000	97.743716 
2460.000000	97.743763 
2459.000000	97.743109 
2458.000000	97.741147 
2457.000000	97.737295 
2456.000000	97.732682 
2455.000000	97.729386 
2454.000000	97.728578 
2453.000000	97.730501 
2452.000000	97.735290 
2451.000000	97.742113 
2450.000000	97.748216 
2449.000000	97.750935 
2448.000000	97.750654 
2447.000000	97.750105 
2446.000000	97.750917 
2445.000000	97.752563 
2444.000000	97.754370 
2443.000000	97.756506 
2442.000000	97.758945 
2441.000000	97.761447 
2440.000000	97.764700 
2439.000000	97.769486 
2438.000000	97.774443 
2437.000000	97.776682 
2436.000000	97.775320 
2435.000000	97.772788 
2434.000000	97.772072 
2433.000000	97.774102 
2432.000000	97.778082 
2431.000000	97.782586 
2430.000000	97.785851 
2429.000000	97.786886 
2428.000000	97.787218 
2427.000000	97.789973 
2426.000000	97.796245 
2425.000000	97.803611 
2424.000000	97.809026 
2423.000000	97.811960 
2422.000000	97.813947 
2421.000000	97.816416 
2420.000000	97.820071 
2419.000000	97.825391 
2418.000000	97.832411 
2417.000000	97.840230 
2416.000000	97.847381 
2415.000000	97.852544 
2414.000000	97.854986 
2413.000000	97.855046 
2412.000000	97.854356 
2411.000000	97.854889 
2410.000000	97.857778 
2409.000000	97.863593 
2408.000000	97.873065 
2407.000000	97.885969 
2406.000000	97.899514 
2405.000000	97.909886 
2404.000000	97.916076 
2403.000000	97.920677 
2402.000000	97.926197 
2401.000000	97.932013 
2400.000000	97.935813 
2399.000000	97.936761 
2398.000000	97.936078 
2397.000000	97.935328 
2396.000000	97.935349 
2395.000000	97.936534 
2394.000000	97.939042 
2393.000000	97.942543 
2392.000000	97.946225 
2391.000000	97.949273 
2390.000000	97.951333 
2389.000000	97.952642 
2388.000000	97.953683 
2387.000000	97.954489 
2386.000000	97.954419 
2385.000000	97.953010 
2384.000000	97.951146 
2383.000000	97.951310 
2382.000000	97.956878 
2381.000000	97.970966 
2380.000000	97.994576 
2379.000000	98.024494 
2378.000000	98.053531 
2377.000000	98.074806 
2376.000000	98.086230 
2375.000000	98.089745 
2374.000000	98.087015 
2373.000000	98.077697 
2372.000000	98.062515 
2371.000000	98.046051 
2370.000000	98.034948 
2369.000000	98.032917 
2368.000000	98.036619 
2367.000000	98.036604 
2366.000000	98.026307 
2365.000000	98.012343 
2364.000000	98.011093 
2363.000000	98.028630 
2362.000000	98.050524 
2361.000000	98.058051 
2360.000000	98.046441 
2359.000000	98.026201 
2358.000000	98.012986 
2357.000000	98.016281 
2356.000000	98.035309 
2355.000000	98.057541 
2354.000000	98.072490 
2353.000000	98.080205 
2352.000000	98.083456 
2351.000000	98.080257 
2350.000000	98.066101 
2349.000000	98.043972 
2348.000000	98.022027 
2347.000000	98.006820 
2346.000000	98.000596 
2345.000000	97.998337 
2344.000000	97.994989 
2343.000000	97.985983 
2342.000000	97.975878 
2341.000000	97.974236 
2340.000000	97.981714 
2339.000000	97.990111 
2338.000000	97.991999 
2337.000000	97.991372 
2336.000000	97.994227 
2335.000000	97.999619 
2334.000000	97.999166 
2333.000000	97.991070 
2332.000000	97.979328 
2331.000000	97.971366 
2330.000000	97.964830 
2329.000000	97.953920 
2328.000000	97.929011 
2327.000000	97.882678 
2326.000000	97.815932 
2325.000000	97.743931 
2324.000000	97.693355 
2323.000000	97.682348 
2322.000000	97.707010 
2321.000000	97.747412 
2320.000000	97.784976 
2319.000000	97.812912 
2318.000000	97.829147 
2317.000000	97.837724 
2316.000000	97.844899 
2315.000000	97.857175 
2314.000000	97.871141 
2313.000000	97.879976 
2312.000000	97.879808 
2311.000000	97.874913 
2310.000000	97.868932 
2309.000000	97.863165 
2308.000000	97.857818 
2307.000000	97.855016 
2306.000000	97.854429 
2305.000000	97.853378 
2304.000000	97.849349 
2303.000000	97.843644 
2302.000000	97.838269 
2301.000000	97.834999 
2300.000000	97.833675 
2299.000000	97.833520 
2298.000000	97.831904 
2297.000000	97.827490 
2296.000000	97.821405 
2295.000000	97.816432 
2294.000000	97.813388 
2293.000000	97.811075 
2292.000000	97.808000 
2291.000000	97.802385 
2290.000000	97.792429 
2289.000000	97.778804 
2288.000000	97.766366 
2287.000000	97.759404 
2286.000000	97.756992 
2285.000000	97.755686 
2284.000000	97.756186 
2283.000000	97.762578 
2282.000000	97.775926 
2281.000000	97.792696 
2280.000000	97.809886 
2279.000000	97.827109 
2278.000000	97.843156 
2277.000000	97.855455 
2276.000000	97.863839 
2275.000000	97.870923 
2274.000000	97.877296 
2273.000000	97.881161 
2272.000000	97.883289 
2271.000000	97.887558 
2270.000000	97.894656 
2269.000000	97.900529 
2268.000000	97.903501 
2267.000000	97.908501 
2266.000000	97.920688 
2265.000000	97.938025 
2264.000000	97.953250 
2263.000000	97.960816 
2262.000000	97.959881 
2261.000000	97.952484 
2260.000000	97.941595 
2259.000000	97.929741 
2258.000000	97.919017 
2257.000000	97.913125 
2256.000000	97.917642 
2255.000000	97.934807 
2254.000000	97.958404 
2253.000000	97.978068 
2252.000000	97.988694 
2251.000000	97.992412 
2250.000000	97.991676 
2249.000000	97.985883 
2248.000000	97.976115 
2247.000000	97.967105 
2246.000000	97.963034 
2245.000000	97.963387 
2244.000000	97.964901 
2243.000000	97.965025 
2242.000000	97.963156 
2241.000000	97.961172 
2240.000000	97.962864 
2239.000000	97.969501 
2238.000000	97.976328 
2237.000000	97.976924 
2236.000000	97.970744 
2235.000000	97.962754 
2234.000000	97.956480 
2233.000000	97.952150 
2232.000000	97.950828 
2231.000000	97.954673 
2230.000000	97.962508 
2229.000000	97.970293 
2228.000000	97.976739 
2227.000000	97.983907 
2226.000000	97.991766 
2225.000000	97.997301 
2224.000000	97.999589 
2223.000000	98.000820 
2222.000000	98.001858 
2221.000000	98.001758 
2220.000000	98.001894 
2219.000000	98.005239 
2218.000000	98.011341 
2217.000000	98.017391 
2216.000000	98.023891 
2215.000000	98.032769 
2214.000000	98.039989 
2213.000000	98.037886 
2212.000000	98.026564 
2211.000000	98.015800 
2210.000000	98.013225 
2209.000000	98.017121 
2208.000000	98.022636 
2207.000000	98.028158 
2206.000000	98.032348 
2205.000000	98.031621 
2204.000000	98.025358 
2203.000000	98.018880 
2202.000000	98.017542 
2201.000000	98.021321 
2200.000000	98.027068 
2199.000000	98.032058 
2198.000000	98.033425 
2197.000000	98.028694 
2196.000000	98.019103 
2195.000000	98.008525 
2194.000000	97.998210 
2193.000000	97.987360 
2192.000000	97.979273 
2191.000000	97.980205 
2190.000000	97.989931 
2189.000000	97.998949 
2188.000000	97.997980 
2187.000000	97.986485 
2186.000000	97.970048 
2185.000000	97.955605 
2184.000000	97.951793 
2183.000000	97.967099 
2182.000000	98.001916 
2181.000000	98.043734 
2180.000000	98.074909 
2179.000000	98.086299 
2178.000000	98.083267 
2177.000000	98.081090 
2176.000000	98.092886 
2175.000000	98.116467 
2174.000000	98.133086 
2173.000000	98.123236 
2172.000000	98.083615 
2171.000000	98.027019 
2170.000000	97.969160 
2169.000000	97.920828 
2168.000000	97.887433 
2167.000000	97.868393 
2166.000000	97.857159 
2165.000000	97.846182 
2164.000000	97.831881 
2163.000000	97.814960 
2162.000000	97.805921 
2161.000000	97.837553 
2160.000000	97.955754 
2159.000000	98.172427 
2158.000000	98.425630 
2157.000000	98.615882 
2156.000000	98.689378 
2155.000000	98.666944 
2154.000000	98.600539 
2153.000000	98.531640 
2152.000000	98.481609 
2151.000000	98.452987 
2150.000000	98.433756 
2149.000000	98.411258 
2148.000000	98.387673 
2147.000000	98.375380 
2146.000000	98.378338 
2145.000000	98.387873 
2144.000000	98.396133 
2143.000000	98.402872 
2142.000000	98.407191 
2141.000000	98.403944 
2140.000000	98.392515 
2139.000000	98.381249 
2138.000000	98.379453 
2137.000000	98.390774 
2136.000000	98.415034 
2135.000000	98.449152 
2134.000000	98.483456 
2133.000000	98.504030 
2132.000000	98.502782 
2131.000000	98.482154 
2130.000000	98.449485 
2129.000000	98.412454 
2128.000000	98.378796 
2127.000000	98.353756 
2126.000000	98.335662 
2125.000000	98.318343 
2124.000000	98.298704 
2123.000000	98.278544 
2122.000000	98.259207 
2121.000000	98.239573 
2120.000000	98.219940 
2119.000000	98.202975 
2118.000000	98.189103 
2117.000000	98.174925 
2116.000000	98.157925 
2115.000000	98.140036 
2114.000000	98.125293 
2113.000000	98.116307 
2112.000000	98.113060 
2111.000000	98.112737 
2110.000000	98.111026 
2109.000000	98.106676 
2108.000000	98.104063 
2107.000000	98.107652 
2106.000000	98.114351 
2105.000000	98.115789 
2104.000000	98.108537 
2103.000000	98.098339 
2102.000000	98.093098 
2101.000000	98.095007 
2100.000000	98.099985 
2099.000000	98.103313 
2098.000000	98.105760 
2097.000000	98.115247 
2096.000000	98.139081 
2095.000000	98.172119 
2094.000000	98.196763 
2093.000000	98.199890 
2092.000000	98.185867 
2091.000000	98.168065 
2090.000000	98.151638 
2089.000000	98.132386 
2088.000000	98.108735 
2087.000000	98.085875 
2086.000000	98.067973 
2085.000000	98.054371 
2084.000000	98.043934 
2083.000000	98.037031 
2082.000000	98.032273 
2081.000000	98.026834 
2080.000000	98.020705 
2079.000000	98.015833 
2078.000000	98.011331 
2077.000000	98.005018 
2076.000000	97.998949 
2075.000000	97.997271 
2074.000000	97.999445 
2073.000000	98.001755 
2072.000000	98.004706 
2071.000000	98.011726 
2070.000000	98.021250 
2069.000000	98.027256 
2068.000000	98.027710 
2067.000000	98.025656 
2066.000000	98.022875 
2065.000000	98.020072 
2064.000000	98.022116 
2063.000000	98.033438 
2062.000000	98.049079 
2061.000000	98.059778 
2060.000000	98.064490 
2059.000000	98.068261 
2058.000000	98.069928 
2057.000000	98.064828 
2056.000000	98.057991 
2055.000000	98.057820 
2054.000000	98.054003 
2053.000000	98.020774 
2052.000000	97.952681 
2051.000000	97.883745 
2050.000000	97.858607 
2049.000000	97.890094 
2048.000000	97.951821 
2047.000000	98.009192 
2046.000000	98.046561 
2045.000000	98.065323 
2044.000000	98.072146 
2043.000000	98.073218 
2042.000000	98.071593 
2041.000000	98.067228 
2040.000000	98.060833 
2039.000000	98.054398 
2038.000000	98.046996 
2037.000000	98.036853 
2036.000000	98.029588 
2035.000000	98.036595 
2034.000000	98.061023 
2033.000000	98.092810 
2032.000000	98.122089 
2031.000000	98.149182 
2030.000000	98.176160 
2029.000000	98.197789 
2028.000000	98.207917 
2027.000000	98.207607 
2026.000000	98.201506 
2025.000000	98.193168 
2024.000000	98.188347 
2023.000000	98.194113 
2022.000000	98.209519 
2021.000000	98.223767 
2020.000000	98.229013 
2019.000000	98.229212 
2018.000000	98.232023 
2017.000000	98.238381 
2016.000000	98.244866 
2015.000000	98.250161 
2014.000000	98.253667 
2013.000000	98.252983 
2012.000000	98.246091 
2011.000000	98.233434 
2010.000000	98.218839 
2009.000000	98.212567 
2008.000000	98.229242 
2007.000000	98.272766 
2006.000000	98.324958 
2005.000000	98.358782 
2004.000000	98.363414 
2003.000000	98.347908 
2002.000000	98.323850 
2001.000000	98.296650 
2000.000000	98.270741 
1999.000000	98.250815 
1998.000000	98.235715 
1997.000000	98.220495 
1996.000000	98.205076 
1995.000000	98.193809 
1994.000000	98.186935 
1993.000000	98.179866 
1992.000000	98.172020 
1991.000000	98.169249 
1990.000000	98.173396 
1989.000000	98.177765 
1988.000000	98.175491 
1987.000000	98.165262 
1986.000000	98.148530 
1985.000000	98.126691 
1984.000000	98.100512 
1983.000000	98.067198 
1982.000000	98.021802 
1981.000000	97.971086 
1980.000000	97.942852 
1979.000000	97.969002 
1978.000000	98.053647 
1977.000000	98.164662 
1976.000000	98.261484 
1975.000000	98.325516 
1974.000000	98.361016 
1973.000000	98.380620 
1972.000000	98.395551 
1971.000000	98.408932 
1970.000000	98.414185 
1969.000000	98.405728 
1968.000000	98.391053 
1967.000000	98.384618 
1966.000000	98.389895 
1965.000000	98.398137 
1964.000000	98.404667 
1963.000000	98.414520 
1962.000000	98.432316 
1961.000000	98.455712 
1960.000000	98.480015 
1959.000000	98.501348 
1958.000000	98.513720 
1957.000000	98.511321 
1956.000000	98.495959 
1955.000000	98.476260 
1954.000000	98.458892 
1953.000000	98.445261 
1952.000000	98.436231 
1951.000000	98.433149 
1950.000000	98.434450 
1949.000000	98.436662 
1948.000000	98.438762 
1947.000000	98.440555 
1946.000000	98.438811 
1945.000000	98.431457 
1944.000000	98.423514 
1943.000000	98.421788 
1942.000000	98.425561 
1941.000000	98.430818 
1940.000000	98.438284 
1939.000000	98.448083 
1938.000000	98.453996 
1937.000000	98.450386 
1936.000000	98.442210 
1935.000000	98.439805 
1934.000000	98.444214 
1933.000000	98.446212 
1932.000000	98.440930 
1931.000000	98.433484 
1930.000000	98.428948 
1929.000000	98.425921 
1928.000000	98.422258 
1927.000000	98.419569 
1926.000000	98.419270 
1925.000000	98.422091 
1924.000000	98.427958 
1923.000000	98.431678 
1922.000000	98.422966 
1921.000000	98.399793 
1920.000000	98.374238 
1919.000000	98.360407 
1918.000000	98.359725 
1917.000000	98.362051 
1916.000000	98.362662 
1915.000000	98.363981 
1914.000000	98.363513 
1913.000000	98.355660 
1912.000000	98.343154 
1911.000000	98.335808 
1910.000000	98.335794 
1909.000000	98.334199 
1908.000000	98.325983 
1907.000000	98.316314 
1906.000000	98.308752 
1905.000000	98.301751 
1904.000000	98.294829 
1903.000000	98.289568 
1902.000000	98.283921 
1901.000000	98.274354 
1900.000000	98.262842 
1899.000000	98.254018 
1898.000000	98.246385 
1897.000000	98.235632 
1896.000000	98.224338 
1895.000000	98.218936 
1894.000000	98.216674 
1893.000000	98.208186 
1892.000000	98.192869 
1891.000000	98.180364 
1890.000000	98.176428 
1889.000000	98.175356 
1888.000000	98.173432 
1887.000000	98.174661 
1886.000000	98.179489 
1885.000000	98.182446 
1884.000000	98.180919 
1883.000000	98.178524 
1882.000000	98.177514 
1881.000000	98.176206 
1880.000000	98.175614 
1879.000000	98.180658 
1878.000000	98.191512 
1877.000000	98.201576 
1876.000000	98.207064 
1875.000000	98.210943 
1874.000000	98.214933 
1873.000000	98.215643 
1872.000000	98.211971 
1871.000000	98.209866 
1870.000000	98.216215 
1869.000000	98.228805 
1868.000000	98.240429 
1867.000000	98.252104 
1866.000000	98.264810 
1865.000000	98.273666 
1864.000000	98.277188 
1863.000000	98.279922 
1862.000000	98.285037 
1861.000000	98.290674 
1860.000000	98.295876 
1859.000000	98.302835 
1858.000000	98.310140 
1857.000000	98.312957 
1856.000000	98.312264 
1855.000000	98.314278 
1854.000000	98.320302 
1853.000000	98.325255 
1852.000000	98.326255 
1851.000000	98.327929 
1850.000000	98.332701 
1849.000000	98.336651 
1848.000000	98.337556 
1847.000000	98.341089 
1846.000000	98.353115 
1845.000000	98.370414 
1844.000000	98.383797 
1843.000000	98.388251 
1842.000000	98.386091 
1841.000000	98.382127 
1840.000000	98.380927 
1839.000000	98.384807 
1838.000000	98.391849 
1837.000000	98.397619 
1836.000000	98.400443 
1835.000000	98.401079 
1834.000000	98.397558 
1833.000000	98.386946 
1832.000000	98.372808 
1831.000000	98.367308 
1830.000000	98.375421 
1829.000000	98.382875 
1828.000000	98.379535 
1827.000000	98.373336 
1826.000000	98.374380 
1825.000000	98.383316 
1824.000000	98.393416 
1823.000000	98.401758 
1822.000000	98.408335 
1821.000000	98.412169 
1820.000000	98.416713 
1819.000000	98.430901 
1818.000000	98.455819 
1817.000000	98.477270 
1816.000000	98.480513 
1815.000000	98.467415 
1814.000000	98.449222 
1813.000000	98.431350 
1812.000000	98.414449 
1811.000000	98.402313 
1810.000000	98.398636 
1809.000000	98.399001 
1808.000000	98.398195 
1807.000000	98.397435 
1806.000000	98.396504 
1805.000000	98.389873 
1804.000000	98.376190 
1803.000000	98.364154 
1802.000000	98.362825 
1801.000000	98.367190 
1800.000000	98.368798 
1799.000000	98.371160 
1798.000000	98.377634 
1797.000000	98.380316 
1796.000000	98.372880 
1795.000000	98.361210 
1794.000000	98.356079 
1793.000000	98.359763 
1792.000000	98.364147 
1791.000000	98.363524 
1790.000000	98.360666 
1789.000000	98.356110 
1788.000000	98.349810 
1787.000000	98.345611 
1786.000000	98.345405 
1785.000000	98.342870 
1784.000000	98.330830 
1783.000000	98.312707 
1782.000000	98.299246 
1781.000000	98.294413 
1780.000000	98.295065 
1779.000000	98.296856 
1778.000000	98.296155 
1777.000000	98.288621 
1776.000000	98.273701 
1775.000000	98.257001 
1774.000000	98.244449 
1773.000000	98.236283 
1772.000000	98.225178 
1771.000000	98.209827 
1770.000000	98.201827 
1769.000000	98.204528 
1768.000000	98.207860 
1767.000000	98.201381 
1766.000000	98.184160 
1765.000000	98.161700 
1764.000000	98.140755 
1763.000000	98.126839 
1762.000000	98.121327 
1761.000000	98.116671 
1760.000000	98.106329 
1759.000000	98.093218 
1758.000000	98.083953 
1757.000000	98.078185 
1756.000000	98.068634 
1755.000000	98.053204 
1754.000000	98.037402 
1753.000000	98.025039 
1752.000000	98.012463 
1751.000000	97.990984 
1750.000000	97.956345 
1749.000000	97.917177 
1748.000000	97.881001 
1747.000000	97.847500 
1746.000000	97.813886 
1745.000000	97.775548 
1744.000000	97.729023 
1743.000000	97.675427 
1742.000000	97.623323 
1741.000000	97.580261 
1740.000000	97.543472 
1739.000000	97.503802 
1738.000000	97.462361 
1737.000000	97.430070 
1736.000000	97.414075 
1735.000000	97.410619 
1734.000000	97.398158 
1733.000000	97.354936 
1732.000000	97.302020 
1731.000000	97.263195 
1730.000000	97.238112 
1729.000000	97.219864 
1728.000000	97.206479 
1727.000000	97.198294 
1726.000000	97.193470 
1725.000000	97.189949 
1724.000000	97.188751 
1723.000000	97.187316 
1722.000000	97.179552 
1721.000000	97.162445 
1720.000000	97.141628 
1719.000000	97.134873 
1718.000000	97.162304 
1717.000000	97.200204 
1716.000000	97.214243 
1715.000000	97.217054 
1714.000000	97.219679 
1713.000000	97.219565 
1712.000000	97.218094 
1711.000000	97.218622 
1710.000000	97.218647 
1709.000000	97.210207 
1708.000000	97.192413 
1707.000000	97.178401 
1706.000000	97.175436 
1705.000000	97.169689 
1704.000000	97.153579 
1703.000000	97.143370 
1702.000000	97.146041 
1701.000000	97.145741 
1700.000000	97.131797 
1699.000000	97.120024 
1698.000000	97.121519 
1697.000000	97.124851 
1696.000000	97.109393 
1695.000000	97.082873 
1694.000000	97.061481 
1693.000000	97.040516 
1692.000000	97.018275 
1691.000000	96.995042 
1690.000000	96.967842 
1689.000000	96.930074 
1688.000000	96.882525 
1687.000000	96.836085 
1686.000000	96.786887 
1685.000000	96.714907 
1684.000000	96.614816 
1683.000000	96.534967 
1682.000000	96.501870 
1681.000000	96.479148 
1680.000000	96.441920 
1679.000000	96.394713 
1678.000000	96.349322 
1677.000000	96.301935 
1676.000000	96.239115 
1675.000000	96.160774 
1674.000000	96.085634 
1673.000000	96.022364 
1672.000000	95.967089 
1671.000000	95.911824 
1670.000000	95.844283 
1669.000000	95.759936 
1668.000000	95.679615 
1667.000000	95.618670 
1666.000000	95.569559 
1665.000000	95.515730 
1664.000000	95.445009 
1663.000000	95.357631 
1662.000000	95.266017 
1661.000000	95.181554 
1660.000000	95.107414 
1659.000000	95.039032 
1658.000000	94.969528 
1657.000000	94.896669 
1656.000000	94.827207 
1655.000000	94.760159 
1654.000000	94.666931 
1653.000000	94.523324 
1652.000000	94.420095 
1651.000000	94.387619 
1650.000000	94.377623 
1649.000000	94.370440 
1648.000000	94.360500 
1647.000000	94.345383 
1646.000000	94.329110 
1645.000000	94.327807 
1644.000000	94.339049 
1643.000000	94.357818 
1642.000000	94.381261 
1641.000000	94.397719 
1640.000000	94.401531 
1639.000000	94.402771 
1638.000000	94.411848 
1637.000000	94.426171 
1636.000000	94.435703 
1635.000000	94.447413 
1634.000000	94.477524 
1633.000000	94.515367 
1632.000000	94.550845 
1631.000000	94.581366 
1630.000000	94.601615 
1629.000000	94.607805 
1628.000000	94.606700 
1627.000000	94.609929 
1626.000000	94.619394 
1625.000000	94.624627 
1624.000000	94.615071 
1623.000000	94.583610 
1622.000000	94.530326 
1621.000000	94.465537 
1620.000000	94.395370 
1619.000000	94.308627 
1618.000000	94.164172 
1617.000000	93.908875 
1616.000000	93.569587 
1615.000000	93.250486 
1614.000000	92.982788 
1613.000000	92.725072 
1612.000000	92.443045 
1611.000000	92.143117 
1610.000000	91.859468 
1609.000000	91.623257 
1608.000000	91.460313 
1607.000000	91.399946 
1606.000000	91.455994 
1605.000000	91.611511 
1604.000000	91.844528 
1603.000000	92.143718 
1602.000000	92.488230 
1601.000000	92.842008 
1600.000000	93.179923 
1599.000000	93.497232 
1598.000000	93.792927 
1597.000000	94.062096 
1596.000000	94.303909 
1595.000000	94.520129 
1594.000000	94.704924 
1593.000000	94.850458 
1592.000000	94.957275 
1591.000000	95.026909 
1590.000000	95.052206 
1589.000000	95.025651 
1588.000000	94.950325 
1587.000000	94.835272 
1586.000000	94.691136 
1585.000000	94.535815 
1584.000000	94.394825 
1583.000000	94.295008 
1582.000000	94.251285 
1581.000000	94.261678 
1580.000000	94.315292 
1579.000000	94.406890 
1578.000000	94.541877 
1577.000000	94.730440 
1576.000000	94.952560 
1575.000000	95.142078 
1574.000000	95.267687 
1573.000000	95.352481 
1572.000000	95.421940 
1571.000000	95.487698 
1570.000000	95.550557 
1569.000000	95.602896 
1568.000000	95.643174 
1567.000000	95.674927 
1566.000000	95.696530 
1565.000000	95.707480 
1564.000000	95.709728 
1563.000000	95.706042 
1562.000000	95.692236 
1561.000000	95.656824 
1560.000000	95.609745 
1559.000000	95.603163 
1558.000000	95.602153 
1557.000000	95.627606 
1556.000000	95.668909 
1555.000000	95.702973 
1554.000000	95.716309 
1553.000000	95.708339 
1552.000000	95.694693 
1551.000000	95.690102 
1550.000000	95.693647 
1549.000000	95.700177 
1548.000000	95.711190 
1547.000000	95.727636 
1546.000000	95.743457 
1545.000000	95.751938 
1544.000000	95.751904 
1543.000000	95.751155 
1542.000000	95.756909 
1541.000000	95.762354 
1540.000000	95.748743 
1539.000000	95.731027 
1538.000000	95.734413 
1537.000000	95.739510 
1536.000000	95.741198 
1535.000000	95.741473 
1534.000000	95.731899 
1533.000000	95.701730 
1532.000000	95.669997 
1531.000000	95.655710 
1530.000000	95.640438 
1529.000000	95.602939 
1528.000000	95.542851 
1527.000000	95.466082 
1526.000000	95.365868 
1525.000000	95.238391 
1524.000000	95.092086 
1523.000000	94.892564 
1522.000000	94.525478 
1521.000000	93.948589 
1520.000000	93.339840 
1519.000000	92.747140 
1518.000000	91.950192 
1517.000000	90.755245 
1516.000000	89.329550 
1515.000000	88.018431 
1514.000000	86.849082 
1513.000000	85.681263 
1512.000000	84.526229 
1511.000000	83.531511 
1510.000000	82.781641 
1509.000000	82.264703 
1508.000000	82.030866 
1507.000000	82.242193 
1506.000000	82.859321 
1505.000000	83.617363 
1504.000000	84.410695 
1503.000000	85.257606 
1502.000000	86.164984 
1501.000000	87.115922 
1500.000000	88.081348 
1499.000000	89.027949 
1498.000000	89.938204 
1497.000000	90.795769 
1496.000000	91.543447 
1495.000000	92.122241 
1494.000000	92.541150 
1493.000000	92.853593 
1492.000000	93.118319 
1491.000000	93.379561 
1490.000000	93.634671 
1489.000000	93.831198 
1488.000000	93.964437 
1487.000000	94.076188 
1486.000000	94.171175 
1485.000000	94.231093 
1484.000000	94.255432 
1483.000000	94.255991 
1482.000000	94.229738 
1481.000000	94.164086 
1480.000000	94.065847 
1479.000000	93.951859 
1478.000000	93.814431 
1477.000000	93.637034 
1476.000000	93.437041 
1475.000000	93.250438 
1474.000000	93.056930 
1473.000000	92.778586 
1472.000000	92.421764 
1471.000000	92.112977 
1470.000000	91.893553 
1469.000000	91.713671 
1468.000000	91.541132 
1467.000000	91.371591 
1466.000000	91.201055 
1465.000000	91.026305 
1464.000000	90.875815 
1463.000000	90.782818 
1462.000000	90.734890 
1461.000000	90.703721 
1460.000000	90.682023 
1459.000000	90.680325 
1458.000000	90.706555 
1457.000000	90.753168 
1456.000000	90.821772 
1455.000000	90.923175 
1454.000000	91.050316 
1453.000000	91.197609 
1452.000000	91.358563 
1451.000000	91.522177 
1450.000000	91.683443 
1449.000000	91.846365 
1448.000000	92.010285 
1447.000000	92.164267 
1446.000000	92.303409 
1445.000000	92.428997 
1444.000000	92.544132 
1443.000000	92.650282 
1442.000000	92.747239 
1441.000000	92.835123 
1440.000000	92.914404 
1439.000000	92.985555 
1438.000000	93.049549 
1437.000000	93.107403 
1436.000000	93.156367 
1435.000000	93.200329 
1434.000000	93.251016 
1433.000000	93.311644 
1432.000000	93.377206 
1431.000000	93.443659 
1430.000000	93.514439 
1429.000000	93.591388 
1428.000000	93.663901 
1427.000000	93.721007 
1426.000000	93.765388 
1425.000000	93.803188 
1424.000000	93.830524 
1423.000000	93.840738 
1422.000000	93.841096 
1421.000000	93.835263 
1420.000000	93.809706 
1419.000000	93.753282 
1418.000000	93.686139 
1417.000000	93.638314 
1416.000000	93.609962 
1415.000000	93.592209 
1414.000000	93.587933 
1413.000000	93.604959 
1412.000000	93.643925 
1411.000000	93.697434 
1410.000000	93.759879 
1409.000000	93.828595 
1408.000000	93.897118 
1407.000000	93.959258 
1406.000000	94.018459 
1405.000000	94.080451 
1404.000000	94.139676 
1403.000000	94.186803 
1402.000000	94.223491 
1401.000000	94.255861 
1400.000000	94.284509 
1399.000000	94.304707 
1398.000000	94.318359 
1397.000000	94.332629 
1396.000000	94.342010 
1395.000000	94.334493 
1394.000000	94.316144 
1393.000000	94.301848 
1392.000000	94.285273 
1391.000000	94.251467 
1390.000000	94.193920 
1389.000000	94.107061 
1388.000000	93.978339 
1387.000000	93.807436 
1386.000000	93.631593 
1385.000000	93.494304 
1384.000000	93.409531 
1383.000000	93.377674 
1382.000000	93.400250 
1381.000000	93.470878 
1380.000000	93.569319 
1379.000000	93.670790 
1378.000000	93.758072 
1377.000000	93.827077 
1376.000000	93.882097 
1375.000000	93.927583 
1374.000000	93.964273 
1373.000000	93.993294 
1372.000000	94.015332 
1371.000000	94.024063 
1370.000000	94.009289 
1369.000000	93.961373 
1368.000000	93.872926 
1367.000000	93.743472 
1366.000000	93.578664 
1365.000000	93.383380 
1364.000000	93.169065 
1363.000000	92.975831 
1362.000000	92.874104 
1361.000000	92.916521 
1360.000000	93.095331 
1359.000000	93.362181 
1358.000000	93.660446 
1357.000000	93.940894 
1356.000000	94.172221 
1355.000000	94.344760 
1354.000000	94.464580 
1353.000000	94.545273 
1352.000000	94.602123 
1351.000000	94.646390 
1350.000000	94.681538 
1349.000000	94.707531 
1348.000000	94.726310 
1347.000000	94.741066 
1346.000000	94.752725 
1345.000000	94.759803 
1344.000000	94.760921 
1343.000000	94.756667 
1342.000000	94.749470 
1341.000000	94.741942 
1340.000000	94.732746 
1339.000000	94.717246 
1338.000000	94.697761 
1337.000000	94.683001 
1336.000000	94.675920 
1335.000000	94.672576 
1334.000000	94.668812 
1333.000000	94.664403 
1332.000000	94.661837 
1331.000000	94.662415 
1330.000000	94.664720 
1329.000000	94.667358 
1328.000000	94.670844 
1327.000000	94.675597 
1326.000000	94.679732 
1325.000000	94.680909 
1324.000000	94.677244 
1323.000000	94.667021 
1322.000000	94.648757 
1321.000000	94.620696 
1320.000000	94.578949 
1319.000000	94.517482 
1318.000000	94.432613 
1317.000000	94.326106 
1316.000000	94.201816 
1315.000000	94.062041 
1314.000000	93.909284 
1313.000000	93.750042 
1312.000000	93.595261 
1311.000000	93.454714 
1310.000000	93.329405 
1309.000000	93.210273 
1308.000000	93.085205 
1307.000000	92.946994 
1306.000000	92.794602 
1305.000000	92.630644 
1304.000000	92.459838 
1303.000000	92.289406 
1302.000000	92.126997 
1301.000000	91.978125 
1300.000000	91.847413 
1299.000000	91.740084 
1298.000000	91.658968 
1297.000000	91.602425 
1296.000000	91.568832 
1295.000000	91.560381 
1294.000000	91.579860 
1293.000000	91.626352 
1292.000000	91.696840 
1291.000000	91.789670 
1290.000000	91.903971 
1289.000000	92.037413 
1288.000000	92.186116 
1287.000000	92.345438 
1286.000000	92.510199 
1285.000000	92.675116 
1284.000000	92.835151 
1283.000000	92.985234 
1282.000000	93.120453 
1281.000000	93.237328 
1280.000000	93.334407 
1279.000000	93.410786 
1278.000000	93.464927 
1277.000000	93.495319 
1276.000000	93.502315 
1275.000000	93.488533 
1274.000000	93.456692 
1273.000000	93.406756 
1272.000000	93.336004 
1271.000000	93.242167 
1270.000000	93.125253 
1269.000000	92.985410 
1268.000000	92.820247 
1267.000000	92.625125 
1266.000000	92.394942 
1265.000000	92.125160 
1264.000000	91.812830 
1263.000000	91.456532 
1262.000000	91.053594 
1261.000000	90.600013 
1260.000000	90.097834 
1259.000000	89.559653 
1258.000000	89.000391 
1257.000000	88.428291 
1256.000000	87.850916 
1255.000000	87.283023 
1254.000000	86.738729 
1253.000000	86.222320 
1252.000000	85.736873 
1251.000000	85.293679 
1250.000000	84.902446 
1249.000000	84.560780 
1248.000000	84.263154 
1247.000000	84.009788 
1246.000000	83.797479 
1245.000000	83.613257 
1244.000000	83.447016 
1243.000000	83.299068 
1242.000000	83.167288 
1241.000000	83.040449 
1240.000000	82.913245 
1239.000000	82.794307 
1238.000000	82.690640 
1237.000000	82.597985 
1236.000000	82.515437 
1235.000000	82.454655 
1234.000000	82.424649 
1233.000000	82.421506 
1232.000000	82.442168 
1231.000000	82.493352 
1230.000000	82.577710 
1229.000000	82.685881 
1228.000000	82.811030 
1227.000000	82.957026 
1226.000000	83.124939 
1225.000000	83.305807 
1224.000000	83.493510 
1223.000000	83.690481 
1222.000000	83.894788 
1221.000000	84.096309 
1220.000000	84.291835 
1219.000000	84.489986 
1218.000000	84.695504 
1217.000000	84.902261 
1216.000000	85.107989 
1215.000000	85.322602 
1214.000000	85.555319 
1213.000000	85.805135 
1212.000000	86.069468 
1211.000000	86.350683 
1210.000000	86.647988 
1209.000000	86.952653 
1208.000000	87.256190 
1207.000000	87.554969 
1206.000000	87.844141 
1205.000000	88.115150 
1204.000000	88.361556 
1203.000000	88.580121 
1202.000000	88.765130 
1201.000000	88.908888 
1200.000000	89.008950 
1199.000000	89.067762 
1198.000000	89.083134 
1197.000000	89.044824 
1196.000000	88.942843 
1195.000000	88.773368 
1194.000000	88.533489 
1193.000000	88.216576 
1192.000000	87.818617 
1191.000000	87.344792 
1190.000000	86.804010 
1189.000000	86.202158 
1188.000000	85.549168 
1187.000000	84.868067 
1186.000000	84.188577 
1185.000000	83.538697 
1184.000000	82.952746 
1183.000000	82.478743 
1182.000000	82.165622 
1181.000000	82.048807 
1180.000000	82.150467 
1179.000000	82.470282 
1178.000000	82.964499 
1177.000000	83.555135 
1176.000000	84.169262 
1175.000000	84.758888 
1174.000000	85.291342 
1173.000000	85.744892 
1172.000000	86.117796 
1171.000000	86.426082 
1170.000000	86.685525 
1169.000000	86.902113 
1168.000000	87.080174 
1167.000000	87.227789 
1166.000000	87.349904 
1165.000000	87.445440 
1164.000000	87.516252 
1163.000000	87.570796 
1162.000000	87.614472 
1161.000000	87.644298 
1160.000000	87.657629 
1159.000000	87.658045 
1158.000000	87.648181 
1157.000000	87.624756 
1156.000000	87.585744 
1155.000000	87.535164 
1154.000000	87.476219 
1153.000000	87.407152 
1152.000000	87.328496 
1151.000000	87.246321 
1150.000000	87.163003 
1149.000000	87.072781 
1148.000000	86.971561 
1147.000000	86.862806 
1146.000000	86.749271 
1145.000000	86.628784 
1144.000000	86.504005 
1143.000000	86.386076 
1142.000000	86.281062 
1141.000000	86.181498 
1140.000000	86.077582 
1139.000000	85.966835 
1138.000000	85.847108 
1137.000000	85.711831 
1136.000000	85.559894 
1135.000000	85.399972 
1134.000000	85.237637 
1133.000000	85.068087 
1132.000000	84.888246 
1131.000000	84.704465 
1130.000000	84.520726 
1129.000000	84.330773 
1128.000000	84.129625 
1127.000000	83.920532 
1126.000000	83.702277 
1125.000000	83.463082 
1124.000000	83.197739 
1123.000000	82.919861 
1122.000000	82.649304 
1121.000000	82.400470 
1120.000000	82.189804 
1119.000000	82.035917 
1118.000000	81.939119 
1117.000000	81.875778 
1116.000000	81.822929 
1115.000000	81.773036 
1114.000000	81.718895 
1113.000000	81.645066 
1112.000000	81.544994 
1111.000000	81.428500 
1110.000000	81.302233 
1109.000000	81.161084 
1108.000000	81.008420 
1107.000000	80.864945 
1106.000000	80.745166 
1105.000000	80.644026 
1104.000000	80.557735 
1103.000000	80.496460 
1102.000000	80.464254 
1101.000000	80.447490 
1100.000000	80.434074 
1099.000000	80.427229 
1098.000000	80.426306 
1097.000000	80.417825 
1096.000000	80.395991 
1095.000000	80.371199 
1094.000000	80.346779 
1093.000000	80.308230 
1092.000000	80.246826 
1091.000000	80.172769 
1090.000000	80.093797 
1089.000000	80.002180 
1088.000000	79.895001 
1087.000000	79.786718 
1086.000000	79.689443 
1085.000000	79.600810 
1084.000000	79.522393 
1083.000000	79.466923 
1082.000000	79.433878 
1081.000000	79.400234 
1080.000000	79.348652 
1079.000000	79.283510 
1078.000000	79.208866 
1077.000000	79.114765 
1076.000000	78.997755 
1075.000000	78.871571 
1074.000000	78.744956 
1073.000000	78.611384 
1072.000000	78.472342 
1071.000000	78.346741 
1070.000000	78.245598 
1069.000000	78.161883 
1068.000000	78.096052 
1067.000000	78.063955 
1066.000000	78.066769 
1065.000000	78.080254 
1064.000000	78.086520 
1063.000000	78.090046 
1062.000000	78.091638 
1061.000000	78.074197 
1060.000000	78.027682 
1059.000000	77.962654 
1058.000000	77.885124 
1057.000000	77.782009 
1056.000000	77.645391 
1055.000000	77.487366 
1054.000000	77.316649 
1053.000000	77.123794 
1052.000000	76.905720 
1051.000000	76.681463 
1050.000000	76.465730 
1049.000000	76.251280 
1048.000000	76.033875 
1047.000000	75.826153 
1046.000000	75.632363 
1045.000000	75.438724 
1044.000000	75.241384 
1043.000000	75.055664 
1042.000000	74.886746 
1041.000000	74.720124 
1040.000000	74.553862 
1039.000000	74.410825 
1038.000000	74.304251 
1037.000000	74.219544 
1036.000000	74.144998 
1035.000000	74.092286 
1034.000000	74.071740 
1033.000000	74.074509 
1032.000000	74.094385 
1031.000000	74.141025 
1030.000000	74.216805 
1029.000000	74.306261 
1028.000000	74.401937 
1027.000000	74.515149 
1026.000000	74.649295 
1025.000000	74.788119 
1024.000000	74.921687 
1023.000000	75.058840 
1022.000000	75.203296 
1021.000000	75.341104 
1020.000000	75.461513 
1019.000000	75.566705 
1018.000000	75.651680 
1017.000000	75.698896 
1016.000000	75.703707 
1015.000000	75.682820 
1014.000000	75.649671 
1013.000000	75.607722 
1012.000000	75.579687 
1011.000000	75.616161 
1010.000000	75.756158 
1009.000000	75.994976 
1008.000000	76.299579 
1007.000000	76.633699 
1006.000000	76.961000 
1005.000000	77.251817 
1004.000000	77.503533 
1003.000000	77.738468 
1002.000000	77.972042 
1001.000000	78.197957 
1000.000000	78.409185 
999.000000	 78.612472 
998.000000	 78.813437 
997.000000	 79.006055 
996.000000	 79.186444 
995.000000	 79.361299 
994.000000	 79.534921 
993.000000	 79.702842 
992.000000	 79.864970 
991.000000	 80.030040 
990.000000	 80.200946 
989.000000	 80.371123 
988.000000	 80.540923 
987.000000	 80.721701 
986.000000	 80.918584 
985.000000	 81.125205 
984.000000	 81.340195 
983.000000	 81.572325 
982.000000	 81.824147 
981.000000	 82.086427 
980.000000	 82.353931 
979.000000	 82.631247 
978.000000	 82.918124 
977.000000	 83.204393 
976.000000	 83.484602 
975.000000	 83.763039 
974.000000	 84.039393 
973.000000	 84.303396 
972.000000	 84.548454 
971.000000	 84.777648 
970.000000	 84.991907 
969.000000	 85.184684 
968.000000	 85.352890 
967.000000	 85.501439 
966.000000	 85.631915 
965.000000	 85.737109 
964.000000	 85.811433 
963.000000	 85.856804 
962.000000	 85.873974 
961.000000	 85.858225 
960.000000	 85.808261 
959.000000	 85.729247 
958.000000	 85.621849 
957.000000	 85.477951 
956.000000	 85.292799 
955.000000	 85.072102 
954.000000	 84.821885 
953.000000	 84.541612 
952.000000	 84.233993 
951.000000	 83.911106 
950.000000	 83.582800 
949.000000	 83.248769 
948.000000	 82.908616 
947.000000	 82.567065 
946.000000	 82.221322 
945.000000	 81.857431 
944.000000	 81.469396 
943.000000	 81.069044 
942.000000	 80.667352 
941.000000	 80.259984 
940.000000	 79.841744 
939.000000	 79.419873 
938.000000	 79.000325 
937.000000	 78.575794 
936.000000	 78.140731 
935.000000	 77.703249 
934.000000	 77.268535 
933.000000	 76.825239 
932.000000	 76.360841 
931.000000	 75.874234 
930.000000	 75.361924 
929.000000	 74.814412 
928.000000	 74.247408 
927.000000	 73.721871 
926.000000	 73.311643 
925.000000	 73.057063 
924.000000	 72.954722 
923.000000	 72.967704 
922.000000	 73.031304 
921.000000	 73.074356 
920.000000	 73.056043 
919.000000	 72.972883 
918.000000	 72.827910 
917.000000	 72.615326 
916.000000	 72.341562 
915.000000	 72.034252 
914.000000	 71.715078 
913.000000	 71.384405 
912.000000	 71.044078 
911.000000	 70.709506 
910.000000	 70.383742 
909.000000	 70.046103 
908.000000	 69.685308 
907.000000	 69.323111 
906.000000	 68.996578 
905.000000	 68.749805 
904.000000	 68.657178 
903.000000	 68.811803 
902.000000	 69.254243 
901.000000	 69.929839 
900.000000	 70.728598 
899.000000	 71.539166 
898.000000	 72.262154 
897.000000	 72.820310 
896.000000	 73.185488 
895.000000	 73.377398 
894.000000	 73.420747 
893.000000	 73.319515 
892.000000	 73.080871 
891.000000	 72.738657 
890.000000	 72.336541 
889.000000	 71.909720 
888.000000	 71.500372 
887.000000	 71.166432 
886.000000	 70.951056 
885.000000	 70.861923 
884.000000	 70.897212 
883.000000	 71.064727 
882.000000	 71.354312 
881.000000	 71.714769 
880.000000	 72.074706 
879.000000	 72.365082 
878.000000	 72.520347 
877.000000	 72.502849 
876.000000	 72.356027 
875.000000	 72.212806 
874.000000	 72.225348 
873.000000	 72.491273 
872.000000	 73.041884 
871.000000	 73.854463 
870.000000	 74.854828 
869.000000	 75.945277 
868.000000	 77.054568 
867.000000	 78.147212 
866.000000	 79.189596 
865.000000	 80.135412 
864.000000	 80.943335 
863.000000	 81.579686 
862.000000	 81.996161 
861.000000	 82.126313 
860.000000	 81.919491 
859.000000	 81.379723 
858.000000	 80.579476 
857.000000	 79.649148 
856.000000	 78.748412 
855.000000	 78.009037 
854.000000	 77.465148 
853.000000	 77.042827 
852.000000	 76.634185 
851.000000	 76.173088 
850.000000	 75.644857 
849.000000	 75.064387 
848.000000	 74.471897 
847.000000	 73.926360 
846.000000	 73.473251 
845.000000	 73.127329 
844.000000	 72.896373 
843.000000	 72.793833 
842.000000	 72.810907 
841.000000	 72.904067 
840.000000	 73.028337 
839.000000	 73.158745 
838.000000	 73.268085 
837.000000	 73.314710 
836.000000	 73.270716 
835.000000	 73.139278 
834.000000	 72.930652 
833.000000	 72.645314 
832.000000	 72.295945 
831.000000	 71.920639 
830.000000	 71.556129 
829.000000	 71.223863 
828.000000	 70.962925 
827.000000	 70.845632 
826.000000	 70.930261 
825.000000	 71.223378 
824.000000	 71.708336 
823.000000	 72.368095 
822.000000	 73.155398 
821.000000	 73.986022 
820.000000	 74.787708 
819.000000	 75.527834 
818.000000	 76.190238 
817.000000	 76.759219 
816.000000	 77.233937 
815.000000	 77.630765 
814.000000	 77.959915 
813.000000	 78.218314 
812.000000	 78.411360 
811.000000	 78.559688 
810.000000	 78.676593 
809.000000	 78.760629 
808.000000	 78.820047 
807.000000	 78.883098 
806.000000	 78.973130 
805.000000	 79.093331 
804.000000	 79.245615 
803.000000	 79.441742 
802.000000	 79.684419 
801.000000	 79.958198 
800.000000	 80.249546 
799.000000	 80.556509 
798.000000	 80.871126 
797.000000	 81.173990 
796.000000	 81.455454 
795.000000	 81.722853 
794.000000	 81.978987 
793.000000	 82.212680 
792.000000	 82.418460 
791.000000	 82.606511 
790.000000	 82.784700 
789.000000	 82.948002 
788.000000	 83.093333 
787.000000	 83.227696 
786.000000	 83.353412 
785.000000	 83.461384 
784.000000	 83.546739 
783.000000	 83.615453 
782.000000	 83.668875 
781.000000	 83.698429 
780.000000	 83.703353 
779.000000	 83.697069 
778.000000	 83.687439 
777.000000	 83.666842 
776.000000	 83.630557 
775.000000	 83.588653 
774.000000	 83.550363 
773.000000	 83.512213 
772.000000	 83.470777 
771.000000	 83.431362 
770.000000	 83.394966 
769.000000	 83.352818 
768.000000	 83.303770 
767.000000	 83.261295 
766.000000	 83.233131 
765.000000	 83.209226 
764.000000	 83.179026 
763.000000	 83.144625 
762.000000	 83.107972 
761.000000	 83.062421 
760.000000	 83.007591 
759.000000	 82.956201 
758.000000	 82.914767 
757.000000	 82.872618 
756.000000	 82.821067 
755.000000	 82.769036 
754.000000	 82.729582 
753.000000	 82.704837 
752.000000	 82.692761 
751.000000	 82.693332 
750.000000	 82.699782 
749.000000	 82.699978 
748.000000	 82.694157 
747.000000	 82.694898 
746.000000	 82.702927 
745.000000	 82.701101 
744.000000	 82.679152 
743.000000	 82.643673 
742.000000	 82.594413 
741.000000	 82.512284 
740.000000	 82.384474 
739.000000	 82.224431 
738.000000	 82.056513 
737.000000	 81.898636 
736.000000	 81.767564 
735.000000	 81.677437 
734.000000	 81.618609 
733.000000	 81.556740 
732.000000	 81.465649 
731.000000	 81.345501 
730.000000	 81.203473 
729.000000	 81.041465 
728.000000	 80.875427 
727.000000	 80.741127 
726.000000	 80.661284 
725.000000	 80.625158 
724.000000	 80.613027 
723.000000	 80.619542 
722.000000	 80.641483 
721.000000	 80.666192 
720.000000	 80.687208 
719.000000	 80.710920 
718.000000	 80.734936 
717.000000	 80.743785 
716.000000	 80.735185 
715.000000	 80.725663 
714.000000	 80.719669 
713.000000	 80.697616 
712.000000	 80.649241 
711.000000	 80.592614 
710.000000	 80.544125 
709.000000	 80.495745 
708.000000	 80.438795 
707.000000	 80.384005 
706.000000	 80.338750 
705.000000	 80.289245 
704.000000	 80.225298 
703.000000	 80.157514 
702.000000	 80.092029 
701.000000	 80.014863 
700.000000	 79.920747 
699.000000	 79.831347 
698.000000	 79.762368 
697.000000	 79.698211 
696.000000	 79.622051 
695.000000	 79.544417 
694.000000	 79.481221 
693.000000	 79.428762 
692.000000	 79.380571 
691.000000	 79.343883 
690.000000	 79.316778 
689.000000	 79.276368 
688.000000	 79.213987 
687.000000	 79.153318 
686.000000	 79.110529 
685.000000	 79.071350 
684.000000	 79.027139 
683.000000	 78.992266 
682.000000	 78.966501 
681.000000	 78.922875 
680.000000	 78.855100 
679.000000	 78.795775 
678.000000	 78.763676 
677.000000	 78.733015 
676.000000	 78.684079 
675.000000	 78.632578 
674.000000	 78.589380 
673.000000	 78.542959 
672.000000	 78.505062 
671.000000	 78.521193 
670.000000	 78.611999 
669.000000	 78.711445 
668.000000	 78.686903 
667.000000	 78.543096 
666.000000	 78.420466 
665.000000	 78.360128 
664.000000	 78.320138 
663.000000	 78.285622 
662.000000	 78.261859 
661.000000	 78.234484 
660.000000	 78.193634 
659.000000	 78.164507 
658.000000	 78.162421 
657.000000	 78.153885 
656.000000	 78.117235 
655.000000	 78.086329 
654.000000	 78.088169 
653.000000	 78.090103 
652.000000	 78.062001 
651.000000	 78.032021 
650.000000	 78.026053 
649.000000	 78.007989 
648.000000	 77.945307 
647.000000	 77.876154 
646.000000	 77.845550 
645.000000	 77.833591 
644.000000	 77.806450 
643.000000	 77.774164 
642.000000	 77.746603 
641.000000	 77.695870 
640.000000	 77.620401 
639.000000	 77.579954 
638.000000	 77.601564 
637.000000	 77.624556 
636.000000	 77.608559 
635.000000	 77.602319 
634.000000	 77.635792 
633.000000	 77.646084 
632.000000	 77.593466 
631.000000	 77.542002 
630.000000	 77.547115 
629.000000	 77.560390 
628.000000	 77.532631 
627.000000	 77.507153 
626.000000	 77.519035 
625.000000	 77.504524 
624.000000	 77.427955 
623.000000	 77.386729 
622.000000	 77.453073 
621.000000	 77.524268 
620.000000	 77.486205 
619.000000	 77.394648 
618.000000	 77.348550 
617.000000	 77.310926 
616.000000	 77.234671 
615.000000	 77.199386 
614.000000	 77.246612 
613.000000	 77.263312 
612.000000	 77.178398 
611.000000	 77.095959 
610.000000	 77.110306 
609.000000	 77.154122 
608.000000	 77.169250 
607.000000	 77.224706 
606.000000	 77.341304 
605.000000	 77.400294 
604.000000	 77.345603 
603.000000	 77.277503 
602.000000	 77.254409 
601.000000	 77.194794 
600.000000	 77.080367 
599.000000	 77.045112 
598.000000	 77.140080 
597.000000	 77.211416 
596.000000	 77.149618 
595.000000	 77.052366 
594.000000	 77.008104 
593.000000	 76.916566 
592.000000	 76.718208 
591.000000	 76.583649 
590.000000	 76.636034 
589.000000	 76.699626 
588.000000	 76.582621 
587.000000	 76.342262 
586.000000	 76.079491 
585.000000	 75.707063 
584.000000	 75.200819 
583.000000	 74.831770 
582.000000	 74.790048 
581.000000	 74.805446 
580.000000	 74.597466 
579.000000	 74.358744 
578.000000	 74.342382 
577.000000	 74.333727 
576.000000	 74.111000 
575.000000	 73.953298 
574.000000	 74.101047 
573.000000	 74.183803 
572.000000	 73.856760 
571.000000	 73.394427 
570.000000	 73.192202 
569.000000	 73.085710 
568.000000	 72.837986 
567.000000	 72.683113 
566.000000	 72.785427 
565.000000	 72.807206 
564.000000	 72.604825 
563.000000	 72.559769 
562.000000	 72.766950 
561.000000	 72.648542 
560.000000	 71.951696 
559.000000	 71.319875 
558.000000	 71.320756 
557.000000	 71.541272 
556.000000	 71.514937 
555.000000	 71.489894 
554.000000	 71.679338 
553.000000	 71.604531 
552.000000	 71.033142 
551.000000	 70.584358 
550.000000	 70.652460 

