PE IR                   SPECTRUM    ASCII       PEDS        1.60        
  -1
FR220767.ASC
22/05/31
14:41:22.00
22/05/31
14:41:22.00
Administrator
Tinta cinza escuro removida com auxilio de um estilete na superficie da Amostra denominada A 2 - Porta de passageiros - sem nenhum tratamento - IR/UATR 80N - Vitor
550.000000
20









FRONTIER FT-IR/NIR,CPU32 MAIN 00.09.1072 09-JANUARY-2014 12:55:01
MIR TGS
MIR
OPTKBR
100262
0.200000

4.000000
FORTE
RAZ„O
ESPECTRO
MAGNITUDE
UNIVERSAL ATR
DUPLO

COMBINADO


0


#HDR
-1
-1
#GR
CM-1
%T
0.00002384185791015625
0.0
4000.000000
-1.000000
3451
8
98.124704
42.183200
#DATA
4000.000000	97.484911 
3999.000000	97.485827 
3998.000000	97.487112 
3997.000000	97.488536 
3996.000000	97.489972 
3995.000000	97.491556 
3994.000000	97.493667 
3993.000000	97.496320 
3992.000000	97.498968 
3991.000000	97.500556 
3990.000000	97.500503 
3989.000000	97.499501 
3988.000000	97.498655 
3987.000000	97.498572 
3986.000000	97.498770 
3985.000000	97.498237 
3984.000000	97.496557 
3983.000000	97.494137 
3982.000000	97.492162 
3981.000000	97.491695 
3980.000000	97.492930 
3979.000000	97.495169 
3978.000000	97.497219 
3977.000000	97.497973 
3976.000000	97.496920 
3975.000000	97.494443 
3974.000000	97.491636 
3973.000000	97.489660 
3972.000000	97.489092 
3971.000000	97.489830 
3970.000000	97.491313 
3969.000000	97.493230 
3968.000000	97.495730 
3967.000000	97.498951 
3966.000000	97.502762 
3965.000000	97.506784 
3964.000000	97.510223 
3963.000000	97.512139 
3962.000000	97.511503 
3961.000000	97.507951 
3960.000000	97.503092 
3959.000000	97.499285 
3958.000000	97.497842 
3957.000000	97.497923 
3956.000000	97.497181 
3955.000000	97.494175 
3954.000000	97.489657 
3953.000000	97.486399 
3952.000000	97.487603 
3951.000000	97.494316 
3950.000000	97.504570 
3949.000000	97.514002 
3948.000000	97.518655 
3947.000000	97.517701 
3946.000000	97.512626 
3945.000000	97.506109 
3944.000000	97.500387 
3943.000000	97.496931 
3942.000000	97.496413 
3941.000000	97.498254 
3940.000000	97.501478 
3939.000000	97.504405 
3938.000000	97.505964 
3937.000000	97.507290 
3936.000000	97.510102 
3935.000000	97.515825 
3934.000000	97.523977 
3933.000000	97.531355 
3932.000000	97.533655 
3931.000000	97.528210 
3930.000000	97.517186 
3929.000000	97.504801 
3928.000000	97.493986 
3927.000000	97.486770 
3926.000000	97.485491 
3925.000000	97.490045 
3924.000000	97.496753 
3923.000000	97.501988 
3922.000000	97.504371 
3921.000000	97.506187 
3920.000000	97.510718 
3919.000000	97.519046 
3918.000000	97.528802 
3917.000000	97.534046 
3916.000000	97.531820 
3915.000000	97.524653 
3914.000000	97.516142 
3913.000000	97.509721 
3912.000000	97.506577 
3911.000000	97.506183 
3910.000000	97.506896 
3909.000000	97.507444 
3908.000000	97.508590 
3907.000000	97.513423 
3906.000000	97.524670 
3905.000000	97.542593 
3904.000000	97.561856 
3903.000000	97.574212 
3902.000000	97.574896 
3901.000000	97.565424 
3900.000000	97.551617 
3899.000000	97.540061 
3898.000000	97.534395 
3897.000000	97.532888 
3896.000000	97.532936 
3895.000000	97.534661 
3894.000000	97.537875 
3893.000000	97.542313 
3892.000000	97.544969 
3891.000000	97.545461 
3890.000000	97.547361 
3889.000000	97.549763 
3888.000000	97.552102 
3887.000000	97.554800 
3886.000000	97.557194 
3885.000000	97.557085 
3884.000000	97.550769 
3883.000000	97.537009 
3882.000000	97.518302 
3881.000000	97.501783 
3880.000000	97.496058 
3879.000000	97.502158 
3878.000000	97.512153 
3877.000000	97.515481 
3876.000000	97.510872 
3875.000000	97.505675 
3874.000000	97.506355 
3873.000000	97.515262 
3872.000000	97.529690 
3871.000000	97.544921 
3870.000000	97.557477 
3869.000000	97.565669 
3868.000000	97.571478 
3867.000000	97.575881 
3866.000000	97.578961 
3865.000000	97.580889 
3864.000000	97.577937 
3863.000000	97.570203 
3862.000000	97.563509 
3861.000000	97.561580 
3860.000000	97.562040 
3859.000000	97.561693 
3858.000000	97.559900 
3857.000000	97.558724 
3856.000000	97.561371 
3855.000000	97.568065 
3854.000000	97.577367 
3853.000000	97.586151 
3852.000000	97.585815 
3851.000000	97.579567 
3850.000000	97.572350 
3849.000000	97.567736 
3848.000000	97.564226 
3847.000000	97.559949 
3846.000000	97.553960 
3845.000000	97.546316 
3844.000000	97.539394 
3843.000000	97.534757 
3842.000000	97.532442 
3841.000000	97.531795 
3840.000000	97.530090 
3839.000000	97.526176 
3838.000000	97.521959 
3837.000000	97.520816 
3836.000000	97.524133 
3835.000000	97.528586 
3834.000000	97.532204 
3833.000000	97.536044 
3832.000000	97.541002 
3831.000000	97.546972 
3830.000000	97.551968 
3829.000000	97.553840 
3828.000000	97.552723 
3827.000000	97.551398 
3826.000000	97.552103 
3825.000000	97.554214 
3824.000000	97.555318 
3823.000000	97.552507 
3822.000000	97.547633 
3821.000000	97.545497 
3820.000000	97.546760 
3819.000000	97.548403 
3818.000000	97.546017 
3817.000000	97.541774 
3816.000000	97.539932 
3815.000000	97.542386 
3814.000000	97.547583 
3813.000000	97.552004 
3812.000000	97.554565 
3811.000000	97.557414 
3810.000000	97.561640 
3809.000000	97.567051 
3808.000000	97.571203 
3807.000000	97.572543 
3806.000000	97.569307 
3805.000000	97.559656 
3804.000000	97.545580 
3803.000000	97.532355 
3802.000000	97.524535 
3801.000000	97.521657 
3800.000000	97.522036 
3799.000000	97.524062 
3798.000000	97.525490 
3797.000000	97.527547 
3796.000000	97.533164 
3795.000000	97.541109 
3794.000000	97.547729 
3793.000000	97.549648 
3792.000000	97.547567 
3791.000000	97.544228 
3790.000000	97.541693 
3789.000000	97.541134 
3788.000000	97.541915 
3787.000000	97.542636 
3786.000000	97.542240 
3785.000000	97.540365 
3784.000000	97.537405 
3783.000000	97.534445 
3782.000000	97.530380 
3781.000000	97.524938 
3780.000000	97.521120 
3779.000000	97.522678 
3778.000000	97.530057 
3777.000000	97.538655 
3776.000000	97.543904 
3775.000000	97.545186 
3774.000000	97.545052 
3773.000000	97.546473 
3772.000000	97.549780 
3771.000000	97.554081 
3770.000000	97.557373 
3769.000000	97.558839 
3768.000000	97.558246 
3767.000000	97.557680 
3766.000000	97.559265 
3765.000000	97.562903 
3764.000000	97.566143 
3763.000000	97.565686 
3762.000000	97.560487 
3761.000000	97.552378 
3760.000000	97.544758 
3759.000000	97.541552 
3758.000000	97.544493 
3757.000000	97.554070 
3756.000000	97.566834 
3755.000000	97.579929 
3754.000000	97.593863 
3753.000000	97.613898 
3752.000000	97.642028 
3751.000000	97.669352 
3750.000000	97.682241 
3749.000000	97.678630 
3748.000000	97.664210 
3747.000000	97.643439 
3746.000000	97.620358 
3745.000000	97.599637 
3744.000000	97.591433 
3743.000000	97.596882 
3742.000000	97.604983 
3741.000000	97.610470 
3740.000000	97.615036 
3739.000000	97.619512 
3738.000000	97.621010 
3737.000000	97.616335 
3736.000000	97.606591 
3735.000000	97.595714 
3734.000000	97.593235 
3733.000000	97.604485 
3732.000000	97.619163 
3731.000000	97.626294 
3730.000000	97.625457 
3729.000000	97.622526 
3728.000000	97.622673 
3727.000000	97.624834 
3726.000000	97.623319 
3725.000000	97.612482 
3724.000000	97.592819 
3723.000000	97.569959 
3722.000000	97.549882 
3721.000000	97.535210 
3720.000000	97.525127 
3719.000000	97.519099 
3718.000000	97.517024 
3717.000000	97.517250 
3716.000000	97.516789 
3715.000000	97.514073 
3714.000000	97.508898 
3713.000000	97.500158 
3712.000000	97.482012 
3711.000000	97.451201 
3710.000000	97.416624 
3709.000000	97.391187 
3708.000000	97.375191 
3707.000000	97.360491 
3706.000000	97.341384 
3705.000000	97.314586 
3704.000000	97.278449 
3703.000000	97.235022 
3702.000000	97.190538 
3701.000000	97.153312 
3700.000000	97.127215 
3699.000000	97.111132 
3698.000000	97.102382 
3697.000000	97.099338 
3696.000000	97.100794 
3695.000000	97.105273 
3694.000000	97.110160 
3693.000000	97.112506 
3692.000000	97.112867 
3691.000000	97.116603 
3690.000000	97.127846 
3689.000000	97.142065 
3688.000000	97.151915 
3687.000000	97.152564 
3686.000000	97.140107 
3685.000000	97.110274 
3684.000000	97.053706 
3683.000000	96.942769 
3682.000000	96.714007 
3681.000000	96.279102 
3680.000000	95.585195 
3679.000000	94.682195 
3678.000000	93.738804 
3677.000000	93.036708 
3676.000000	92.923137 
3675.000000	93.493194 
3674.000000	94.348235 
3673.000000	95.093266 
3672.000000	95.658281 
3671.000000	96.107238 
3670.000000	96.458781 
3669.000000	96.687043 
3668.000000	96.806605 
3667.000000	96.863708 
3666.000000	96.885981 
3665.000000	96.879861 
3664.000000	96.846474 
3663.000000	96.792991 
3662.000000	96.736751 
3661.000000	96.701051 
3660.000000	96.703167 
3659.000000	96.743701 
3658.000000	96.807893 
3657.000000	96.873029 
3656.000000	96.919119 
3655.000000	96.939059 
3654.000000	96.939490 
3653.000000	96.932424 
3652.000000	96.930133 
3651.000000	96.940935 
3650.000000	96.958997 
3649.000000	96.956266 
3648.000000	96.925947 
3647.000000	96.897196 
3646.000000	96.888674 
3645.000000	96.895265 
3644.000000	96.905605 
3643.000000	96.911834 
3642.000000	96.909172 
3641.000000	96.898076 
3640.000000	96.884043 
3639.000000	96.874074 
3638.000000	96.871895 
3637.000000	96.875766 
3636.000000	96.880478 
3635.000000	96.881624 
3634.000000	96.880111 
3633.000000	96.881539 
3632.000000	96.890595 
3631.000000	96.903421 
3630.000000	96.907377 
3629.000000	96.888542 
3628.000000	96.851474 
3627.000000	96.816467 
3626.000000	96.788455 
3625.000000	96.764984 
3624.000000	96.745869 
3623.000000	96.731524 
3622.000000	96.719751 
3621.000000	96.706293 
3620.000000	96.688691 
3619.000000	96.671691 
3618.000000	96.663598 
3617.000000	96.667248 
3616.000000	96.678957 
3615.000000	96.692603 
3614.000000	96.703101 
3613.000000	96.709887 
3612.000000	96.717402 
3611.000000	96.726967 
3610.000000	96.730119 
3609.000000	96.715601 
3608.000000	96.682313 
3607.000000	96.644835 
3606.000000	96.619881 
3605.000000	96.610782 
3604.000000	96.609788 
3603.000000	96.607810 
3602.000000	96.599995 
3601.000000	96.585986 
3600.000000	96.569122 
3599.000000	96.553867 
3598.000000	96.542087 
3597.000000	96.532201 
3596.000000	96.523562 
3595.000000	96.516407 
3594.000000	96.511550 
3593.000000	96.510042 
3592.000000	96.511828 
3591.000000	96.514457 
3590.000000	96.514300 
3589.000000	96.507373 
3588.000000	96.491131 
3587.000000	96.466888 
3586.000000	96.443276 
3585.000000	96.428662 
3584.000000	96.421144 
3583.000000	96.415164 
3582.000000	96.406971 
3581.000000	96.394084 
3580.000000	96.377107 
3579.000000	96.359235 
3578.000000	96.343750 
3577.000000	96.332130 
3576.000000	96.324514 
3575.000000	96.320356 
3574.000000	96.318295 
3573.000000	96.317311 
3572.000000	96.317250 
3571.000000	96.318074 
3570.000000	96.318709 
3569.000000	96.317692 
3568.000000	96.311382 
3567.000000	96.291868 
3566.000000	96.259122 
3565.000000	96.229559 
3564.000000	96.215211 
3563.000000	96.212478 
3562.000000	96.212080 
3561.000000	96.208292 
3560.000000	96.200453 
3559.000000	96.191503 
3558.000000	96.183804 
3557.000000	96.177643 
3556.000000	96.172509 
3555.000000	96.167720 
3554.000000	96.161378 
3553.000000	96.152029 
3552.000000	96.141976 
3551.000000	96.136561 
3550.000000	96.138848 
3549.000000	96.146751 
3548.000000	96.154812 
3547.000000	96.156764 
3546.000000	96.147287 
3545.000000	96.126924 
3544.000000	96.104618 
3543.000000	96.089276 
3542.000000	96.082286 
3541.000000	96.079910 
3540.000000	96.077726 
3539.000000	96.073034 
3538.000000	96.064053 
3537.000000	96.049776 
3536.000000	96.032272 
3535.000000	96.016099 
3534.000000	96.005212 
3533.000000	96.000353 
3532.000000	96.000043 
3531.000000	96.001900 
3530.000000	96.003553 
3529.000000	96.003129 
3528.000000	96.000406 
3527.000000	95.996174 
3526.000000	95.990560 
3525.000000	95.982422 
3524.000000	95.970697 
3523.000000	95.956062 
3522.000000	95.941054 
3521.000000	95.928676 
3520.000000	95.920263 
3519.000000	95.914897 
3518.000000	95.910727 
3517.000000	95.906118 
3516.000000	95.900820 
3515.000000	95.895209 
3514.000000	95.889420 
3513.000000	95.883481 
3512.000000	95.877947 
3511.000000	95.872876 
3510.000000	95.867282 
3509.000000	95.860220 
3508.000000	95.852926 
3507.000000	95.847692 
3506.000000	95.844914 
3505.000000	95.843091 
3504.000000	95.839912 
3503.000000	95.832576 
3502.000000	95.820427 
3501.000000	95.806408 
3500.000000	95.794014 
3499.000000	95.784212 
3498.000000	95.775443 
3497.000000	95.765903 
3496.000000	95.755739 
3495.000000	95.746232 
3494.000000	95.737604 
3493.000000	95.728784 
3492.000000	95.718973 
3491.000000	95.708465 
3490.000000	95.698105 
3489.000000	95.688553 
3488.000000	95.680166 
3487.000000	95.672665 
3486.000000	95.664743 
3485.000000	95.655317 
3484.000000	95.645330 
3483.000000	95.636716 
3482.000000	95.629807 
3481.000000	95.622551 
3480.000000	95.613057 
3479.000000	95.601344 
3478.000000	95.588042 
3477.000000	95.573375 
3476.000000	95.557934 
3475.000000	95.542988 
3474.000000	95.529582 
3473.000000	95.518277 
3472.000000	95.509566 
3471.000000	95.503480 
3470.000000	95.498457 
3469.000000	95.491706 
3468.000000	95.481471 
3467.000000	95.468450 
3466.000000	95.454088 
3465.000000	95.438628 
3464.000000	95.421788 
3463.000000	95.404321 
3462.000000	95.387706 
3461.000000	95.372144 
3460.000000	95.356014 
3459.000000	95.337710 
3458.000000	95.317555 
3457.000000	95.297813 
3456.000000	95.280839 
3455.000000	95.266629 
3454.000000	95.253132 
3453.000000	95.238699 
3452.000000	95.224263 
3451.000000	95.211505 
3450.000000	95.199841 
3449.000000	95.186724 
3448.000000	95.170651 
3447.000000	95.153043 
3446.000000	95.136724 
3445.000000	95.122572 
3444.000000	95.108536 
3443.000000	95.092380 
3442.000000	95.074543 
3441.000000	95.058387 
3440.000000	95.047033 
3439.000000	95.039631 
3438.000000	95.031848 
3437.000000	95.020217 
3436.000000	95.005042 
3435.000000	94.988333 
3434.000000	94.971038 
3433.000000	94.953180 
3432.000000	94.935736 
3431.000000	94.919468 
3430.000000	94.902861 
3429.000000	94.883723 
3428.000000	94.862575 
3427.000000	94.842828 
3426.000000	94.827446 
3425.000000	94.816797 
3424.000000	94.809020 
3423.000000	94.800871 
3422.000000	94.788679 
3421.000000	94.770614 
3420.000000	94.748613 
3419.000000	94.726667 
3418.000000	94.707571 
3417.000000	94.692160 
3416.000000	94.680515 
3415.000000	94.671909 
3414.000000	94.663955 
3413.000000	94.653853 
3412.000000	94.640783 
3411.000000	94.626095 
3410.000000	94.611323 
3409.000000	94.597085 
3408.000000	94.583445 
3407.000000	94.570262 
3406.000000	94.557267 
3405.000000	94.544750 
3404.000000	94.533670 
3403.000000	94.524104 
3402.000000	94.514516 
3401.000000	94.503316 
3400.000000	94.490661 
3399.000000	94.477752 
3398.000000	94.465400 
3397.000000	94.454130 
3396.000000	94.444569 
3395.000000	94.436291 
3394.000000	94.427094 
3393.000000	94.415258 
3392.000000	94.402089 
3391.000000	94.390541 
3390.000000	94.381601 
3389.000000	94.373765 
3388.000000	94.365592 
3387.000000	94.357150 
3386.000000	94.349110 
3385.000000	94.341977 
3384.000000	94.336342 
3383.000000	94.332320 
3382.000000	94.328851 
3381.000000	94.324597 
3380.000000	94.319768 
3379.000000	94.315747 
3378.000000	94.313002 
3377.000000	94.310602 
3376.000000	94.307746 
3375.000000	94.304602 
3374.000000	94.301446 
3373.000000	94.298446 
3372.000000	94.296401 
3371.000000	94.296411 
3370.000000	94.298167 
3369.000000	94.299687 
3368.000000	94.299098 
3367.000000	94.295933 
3366.000000	94.290682 
3365.000000	94.284381 
3364.000000	94.278882 
3363.000000	94.276180 
3362.000000	94.276728 
3361.000000	94.279088 
3360.000000	94.281470 
3359.000000	94.282829 
3358.000000	94.282663 
3357.000000	94.281166 
3356.000000	94.279858 
3355.000000	94.280759 
3354.000000	94.284283 
3353.000000	94.288809 
3352.000000	94.292452 
3351.000000	94.294455 
3350.000000	94.294774 
3349.000000	94.293642 
3348.000000	94.291767 
3347.000000	94.290020 
3346.000000	94.288636 
3345.000000	94.287465 
3344.000000	94.287231 
3343.000000	94.289250 
3342.000000	94.293760 
3341.000000	94.299443 
3340.000000	94.304731 
3339.000000	94.308542 
3338.000000	94.309691 
3337.000000	94.307262 
3336.000000	94.302228 
3335.000000	94.297306 
3334.000000	94.294330 
3333.000000	94.292888 
3332.000000	94.292210 
3331.000000	94.293016 
3330.000000	94.296443 
3329.000000	94.301933 
3328.000000	94.307211 
3327.000000	94.310092 
3326.000000	94.309816 
3325.000000	94.307030 
3324.000000	94.303376 
3323.000000	94.300840 
3322.000000	94.300927 
3321.000000	94.304142 
3320.000000	94.310124 
3319.000000	94.317855 
3318.000000	94.325771 
3317.000000	94.332132 
3316.000000	94.335961 
3315.000000	94.337734 
3314.000000	94.339258 
3313.000000	94.342686 
3312.000000	94.348974 
3311.000000	94.356907 
3310.000000	94.364086 
3309.000000	94.369265 
3308.000000	94.373216 
3307.000000	94.376892 
3306.000000	94.379691 
3305.000000	94.380680 
3304.000000	94.380753 
3303.000000	94.382138 
3302.000000	94.385987 
3301.000000	94.391558 
3300.000000	94.397636 
3299.000000	94.403469 
3298.000000	94.408632 
3297.000000	94.413113 
3296.000000	94.417837 
3295.000000	94.423922 
3294.000000	94.431247 
3293.000000	94.438595 
3292.000000	94.445208 
3291.000000	94.451247 
3290.000000	94.456669 
3289.000000	94.460766 
3288.000000	94.463247 
3287.000000	94.465023 
3286.000000	94.467519 
3285.000000	94.471638 
3284.000000	94.477363 
3283.000000	94.483850 
3282.000000	94.489859 
3281.000000	94.494860 
3280.000000	94.499637 
3279.000000	94.505386 
3278.000000	94.512428 
3277.000000	94.520116 
3276.000000	94.527690 
3275.000000	94.534624 
3274.000000	94.540680 
3273.000000	94.546397 
3272.000000	94.553058 
3271.000000	94.561244 
3270.000000	94.569931 
3269.000000	94.577803 
3268.000000	94.584819 
3267.000000	94.591506 
3266.000000	94.597353 
3265.000000	94.601358 
3264.000000	94.604007 
3263.000000	94.607400 
3262.000000	94.612980 
3261.000000	94.620336 
3260.000000	94.628076 
3259.000000	94.635149 
3258.000000	94.641242 
3257.000000	94.646908 
3256.000000	94.653482 
3255.000000	94.661988 
3254.000000	94.672028 
3253.000000	94.682288 
3252.000000	94.692207 
3251.000000	94.702083 
3250.000000	94.712049 
3249.000000	94.721931 
3248.000000	94.731941 
3247.000000	94.742362 
3246.000000	94.752486 
3245.000000	94.761000 
3244.000000	94.767718 
3243.000000	94.773872 
3242.000000	94.780489 
3241.000000	94.787698 
3240.000000	94.795659 
3239.000000	94.804917 
3238.000000	94.815253 
3237.000000	94.825412 
3236.000000	94.834539 
3235.000000	94.843123 
3234.000000	94.852108 
3233.000000	94.861729 
3232.000000	94.871707 
3231.000000	94.881465 
3230.000000	94.889750 
3229.000000	94.895032 
3228.000000	94.897065 
3227.000000	94.897725 
3226.000000	94.899744 
3225.000000	94.904829 
3224.000000	94.913137 
3223.000000	94.923758 
3222.000000	94.935105 
3221.000000	94.945463 
3220.000000	94.953873 
3219.000000	94.960749 
3218.000000	94.967250 
3217.000000	94.974203 
3216.000000	94.981618 
3215.000000	94.989175 
3214.000000	94.997036 
3213.000000	95.006010 
3212.000000	95.016507 
3211.000000	95.027250 
3210.000000	95.035904 
3209.000000	95.041615 
3208.000000	95.045992 
3207.000000	95.050796 
3206.000000	95.055695 
3205.000000	95.059757 
3204.000000	95.064100 
3203.000000	95.071226 
3202.000000	95.081595 
3201.000000	95.092664 
3200.000000	95.101393 
3199.000000	95.106706 
3198.000000	95.109556 
3197.000000	95.112225 
3196.000000	95.117491 
3195.000000	95.126718 
3194.000000	95.138203 
3193.000000	95.148482 
3192.000000	95.155623 
3191.000000	95.160324 
3190.000000	95.164151 
3189.000000	95.168181 
3188.000000	95.173362 
3187.000000	95.180376 
3186.000000	95.188181 
3185.000000	95.194490 
3184.000000	95.198433 
3183.000000	95.201817 
3182.000000	95.206788 
3181.000000	95.213470 
3180.000000	95.220547 
3179.000000	95.227002 
3178.000000	95.232520 
3177.000000	95.237129 
3176.000000	95.241088 
3175.000000	95.244608 
3174.000000	95.247649 
3173.000000	95.250660 
3172.000000	95.255391 
3171.000000	95.263519 
3170.000000	95.274221 
3169.000000	95.284410 
3168.000000	95.291846 
3167.000000	95.296888 
3166.000000	95.300860 
3165.000000	95.304544 
3164.000000	95.308853 
3163.000000	95.315243 
3162.000000	95.324027 
3161.000000	95.333201 
3160.000000	95.340079 
3159.000000	95.343655 
3158.000000	95.344940 
3157.000000	95.345878 
3156.000000	95.348375 
3155.000000	95.353301 
3154.000000	95.359742 
3153.000000	95.366000 
3152.000000	95.371590 
3151.000000	95.377336 
3150.000000	95.383426 
3149.000000	95.388704 
3148.000000	95.392349 
3147.000000	95.395082 
3146.000000	95.398063 
3145.000000	95.401723 
3144.000000	95.406232 
3143.000000	95.411938 
3142.000000	95.418652 
3141.000000	95.425269 
3140.000000	95.430958 
3139.000000	95.436022 
3138.000000	95.441227 
3137.000000	95.446845 
3136.000000	95.452835 
3135.000000	95.459033 
3134.000000	95.464727 
3133.000000	95.468950 
3132.000000	95.471912 
3131.000000	95.475206 
3130.000000	95.479943 
3129.000000	95.485552 
3128.000000	95.491090 
3127.000000	95.496585 
3126.000000	95.502368 
3125.000000	95.508020 
3124.000000	95.512805 
3123.000000	95.516810 
3122.000000	95.521053 
3121.000000	95.526716 
3120.000000	95.534324 
3119.000000	95.542935 
3118.000000	95.550239 
3117.000000	95.554102 
3116.000000	95.554309 
3115.000000	95.552564 
3114.000000	95.551171 
3113.000000	95.552301 
3112.000000	95.557663 
3111.000000	95.566945 
3110.000000	95.577083 
3109.000000	95.584737 
3108.000000	95.589583 
3107.000000	95.593638 
3106.000000	95.597773 
3105.000000	95.601234 
3104.000000	95.604351 
3103.000000	95.609152 
3102.000000	95.616325 
3101.000000	95.623765 
3100.000000	95.629065 
3099.000000	95.632311 
3098.000000	95.635438 
3097.000000	95.639900 
3096.000000	95.645554 
3095.000000	95.651006 
3094.000000	95.654895 
3093.000000	95.657453 
3092.000000	95.660513 
3091.000000	95.665135 
3090.000000	95.670006 
3089.000000	95.673276 
3088.000000	95.675378 
3087.000000	95.678287 
3086.000000	95.682454 
3085.000000	95.686752 
3084.000000	95.691142 
3083.000000	95.697051 
3082.000000	95.704707 
3081.000000	95.712148 
3080.000000	95.717742 
3079.000000	95.722044 
3078.000000	95.726405 
3077.000000	95.731429 
3076.000000	95.737452 
3075.000000	95.744986 
3074.000000	95.753908 
3073.000000	95.763310 
3072.000000	95.772856 
3071.000000	95.783199 
3070.000000	95.794760 
3069.000000	95.807251 
3068.000000	95.820583 
3067.000000	95.835043 
3066.000000	95.850296 
3065.000000	95.865331 
3064.000000	95.879470 
3063.000000	95.892378 
3062.000000	95.903258 
3061.000000	95.911668 
3060.000000	95.918966 
3059.000000	95.927564 
3058.000000	95.938490 
3057.000000	95.950813 
3056.000000	95.963562 
3055.000000	95.976364 
3054.000000	95.988409 
3053.000000	95.998403 
3052.000000	96.006267 
3051.000000	96.013519 
3050.000000	96.021434 
3049.000000	96.029972 
3048.000000	96.038743 
3047.000000	96.047790 
3046.000000	96.057092 
3045.000000	96.066545 
3044.000000	96.076622 
3043.000000	96.087885 
3042.000000	96.099316 
3041.000000	96.108705 
3040.000000	96.115124 
3039.000000	96.120327 
3038.000000	96.127002 
3037.000000	96.136435 
3036.000000	96.148112 
3035.000000	96.160419 
3034.000000	96.171358 
3033.000000	96.179339 
3032.000000	96.184035 
3031.000000	96.186283 
3030.000000	96.187230 
3029.000000	96.188248 
3028.000000	96.190990 
3027.000000	96.196388 
3026.000000	96.203307 
3025.000000	96.209426 
3024.000000	96.213726 
3023.000000	96.216867 
3022.000000	96.219352 
3021.000000	96.220632 
3020.000000	96.220258 
3019.000000	96.218632 
3018.000000	96.216402 
3017.000000	96.214212 
3016.000000	96.212871 
3015.000000	96.212396 
3014.000000	96.210891 
3013.000000	96.205649 
3012.000000	96.195776 
3011.000000	96.182643 
3010.000000	96.167906 
3009.000000	96.152271 
3008.000000	96.136123 
3007.000000	96.119867 
3006.000000	96.103218 
3005.000000	96.085067 
3004.000000	96.064232 
3003.000000	96.039766 
3002.000000	96.011034 
3001.000000	95.978579 
3000.000000	95.944348 
2999.000000	95.909531 
2998.000000	95.872513 
2997.000000	95.830280 
2996.000000	95.781740 
2995.000000	95.728067 
2994.000000	95.670144 
2993.000000	95.607208 
2992.000000	95.538269 
2991.000000	95.463244 
2990.000000	95.382529 
2989.000000	95.296629 
2988.000000	95.206547 
2987.000000	95.113441 
2986.000000	95.017707 
2985.000000	94.919183 
2984.000000	94.817984 
2983.000000	94.714191 
2982.000000	94.607156 
2981.000000	94.496589 
2980.000000	94.383995 
2979.000000	94.271660 
2978.000000	94.160407 
2977.000000	94.049864 
2976.000000	93.940509 
2975.000000	93.833736 
2974.000000	93.729733 
2973.000000	93.627243 
2972.000000	93.525706 
2971.000000	93.426715 
2970.000000	93.332943 
2969.000000	93.246897 
2968.000000	93.170345 
2967.000000	93.103667 
2966.000000	93.045521 
2965.000000	92.994177 
2964.000000	92.949256 
2963.000000	92.911059 
2962.000000	92.878733 
2961.000000	92.850255 
2960.000000	92.824015 
2959.000000	92.798833 
2958.000000	92.773114 
2957.000000	92.745931 
2956.000000	92.718508 
2955.000000	92.692461 
2954.000000	92.666133 
2953.000000	92.634896 
2952.000000	92.595190 
2951.000000	92.546762 
2950.000000	92.490633 
2949.000000	92.427226 
2948.000000	92.357002 
2947.000000	92.280923 
2946.000000	92.199368 
2945.000000	92.112020 
2944.000000	92.019741 
2943.000000	91.925117 
2942.000000	91.830665 
2941.000000	91.737523 
2940.000000	91.646378 
2939.000000	91.558408 
2938.000000	91.475044 
2937.000000	91.398045 
2936.000000	91.330206 
2935.000000	91.274616 
2934.000000	91.232576 
2933.000000	91.203345 
2932.000000	91.186159 
2931.000000	91.181027 
2930.000000	91.187567 
2929.000000	91.204569 
2928.000000	91.231393 
2927.000000	91.268666 
2926.000000	91.317212 
2925.000000	91.377490 
2924.000000	91.450144 
2923.000000	91.535449 
2922.000000	91.631940 
2921.000000	91.737033 
2920.000000	91.849408 
2919.000000	91.969031 
2918.000000	92.094571 
2917.000000	92.222487 
2916.000000	92.349301 
2915.000000	92.473522 
2914.000000	92.594622 
2913.000000	92.711674 
2912.000000	92.823339 
2911.000000	92.928145 
2910.000000	93.024624 
2909.000000	93.112245 
2908.000000	93.192542 
2907.000000	93.267877 
2906.000000	93.339030 
2905.000000	93.405518 
2904.000000	93.468002 
2903.000000	93.528260 
2902.000000	93.586727 
2901.000000	93.640874 
2900.000000	93.689510 
2899.000000	93.733467 
2898.000000	93.774022 
2897.000000	93.811230 
2896.000000	93.844787 
2895.000000	93.874913 
2894.000000	93.901634 
2893.000000	93.924851 
2892.000000	93.945765 
2891.000000	93.966375 
2890.000000	93.986469 
2889.000000	94.003003 
2888.000000	94.013466 
2887.000000	94.018610 
2886.000000	94.020788 
2885.000000	94.020886 
2884.000000	94.018078 
2883.000000	94.011314 
2882.000000	93.999979 
2881.000000	93.983966 
2880.000000	93.964135 
2879.000000	93.942145 
2878.000000	93.919494 
2877.000000	93.897279 
2876.000000	93.876869 
2875.000000	93.859215 
2874.000000	93.843156 
2873.000000	93.825895 
2872.000000	93.806109 
2871.000000	93.785281 
2870.000000	93.765374 
2869.000000	93.746214 
2868.000000	93.725698 
2867.000000	93.701532 
2866.000000	93.672190 
2865.000000	93.637877 
2864.000000	93.601488 
2863.000000	93.567617 
2862.000000	93.539472 
2861.000000	93.517504 
2860.000000	93.501505 
2859.000000	93.492881 
2858.000000	93.494492 
2857.000000	93.509252 
2856.000000	93.539873 
2855.000000	93.588843 
2854.000000	93.657845 
2853.000000	93.747412 
2852.000000	93.857365 
2851.000000	93.986609 
2850.000000	94.132289 
2849.000000	94.289803 
2848.000000	94.454253 
2847.000000	94.620902 
2846.000000	94.784602 
2845.000000	94.940048 
2844.000000	95.083706 
2843.000000	95.214713 
2842.000000	95.333825 
2841.000000	95.441753 
2840.000000	95.538592 
2839.000000	95.623822 
2838.000000	95.696957 
2837.000000	95.759032 
2836.000000	95.813001 
2835.000000	95.861501 
2834.000000	95.904921 
2833.000000	95.942863 
2832.000000	95.976868 
2831.000000	96.009535 
2830.000000	96.041309 
2829.000000	96.070299 
2828.000000	96.095469 
2827.000000	96.117955 
2826.000000	96.139181 
2825.000000	96.159695 
2824.000000	96.180002 
2823.000000	96.200537 
2822.000000	96.220413 
2821.000000	96.238128 
2820.000000	96.253951 
2819.000000	96.269665 
2818.000000	96.285640 
2817.000000	96.300209 
2816.000000	96.312598 
2815.000000	96.324529 
2814.000000	96.338067 
2813.000000	96.353410 
2812.000000	96.369592 
2811.000000	96.385769 
2810.000000	96.400871 
2809.000000	96.413558 
2808.000000	96.423404 
2807.000000	96.431334 
2806.000000	96.438542 
2805.000000	96.445938 
2804.000000	96.454582 
2803.000000	96.465203 
2802.000000	96.477239 
2801.000000	96.489686 
2800.000000	96.502704 
2799.000000	96.516711 
2798.000000	96.530201 
2797.000000	96.540725 
2796.000000	96.548191 
2795.000000	96.555130 
2794.000000	96.563276 
2793.000000	96.571917 
2792.000000	96.580061 
2791.000000	96.587980 
2790.000000	96.595855 
2789.000000	96.602917 
2788.000000	96.608899 
2787.000000	96.614734 
2786.000000	96.621028 
2785.000000	96.627309 
2784.000000	96.633379 
2783.000000	96.639921 
2782.000000	96.647162 
2781.000000	96.654388 
2780.000000	96.661328 
2779.000000	96.668584 
2778.000000	96.676207 
2777.000000	96.683215 
2776.000000	96.688897 
2775.000000	96.693350 
2774.000000	96.696566 
2773.000000	96.698484 
2772.000000	96.700083 
2771.000000	96.702794 
2770.000000	96.706668 
2769.000000	96.710659 
2768.000000	96.714697 
2767.000000	96.719740 
2766.000000	96.725702 
2765.000000	96.731252 
2764.000000	96.735870 
2763.000000	96.740206 
2762.000000	96.744173 
2761.000000	96.746736 
2760.000000	96.748013 
2759.000000	96.749573 
2758.000000	96.752058 
2757.000000	96.754405 
2756.000000	96.756028 
2755.000000	96.758028 
2754.000000	96.761609 
2753.000000	96.766682 
2752.000000	96.772483 
2751.000000	96.778170 
2750.000000	96.782612 
2749.000000	96.785105 
2748.000000	96.786503 
2747.000000	96.788209 
2746.000000	96.790224 
2745.000000	96.791739 
2744.000000	96.793270 
2743.000000	96.796068 
2742.000000	96.799596 
2741.000000	96.801859 
2740.000000	96.802239 
2739.000000	96.801876 
2738.000000	96.801288 
2737.000000	96.800123 
2736.000000	96.799414 
2735.000000	96.801397 
2734.000000	96.806415 
2733.000000	96.812169 
2732.000000	96.816679 
2731.000000	96.819939 
2730.000000	96.822407 
2729.000000	96.824257 
2728.000000	96.826594 
2727.000000	96.831013 
2726.000000	96.837241 
2725.000000	96.843219 
2724.000000	96.848064 
2723.000000	96.852762 
2722.000000	96.857568 
2721.000000	96.861144 
2720.000000	96.863119 
2719.000000	96.865120 
2718.000000	96.868282 
2717.000000	96.871886 
2716.000000	96.875278 
2715.000000	96.879063 
2714.000000	96.883533 
2713.000000	96.887896 
2712.000000	96.891979 
2711.000000	96.896787 
2710.000000	96.902526 
2709.000000	96.907927 
2708.000000	96.912271 
2707.000000	96.916220 
2706.000000	96.920043 
2705.000000	96.923007 
2704.000000	96.925270 
2703.000000	96.928358 
2702.000000	96.932758 
2701.000000	96.936872 
2700.000000	96.939197 
2699.000000	96.940019 
2698.000000	96.940401 
2697.000000	96.941188 
2696.000000	96.943438 
2695.000000	96.947945 
2694.000000	96.953685 
2693.000000	96.958455 
2692.000000	96.961511 
2691.000000	96.963834 
2690.000000	96.965788 
2689.000000	96.966785 
2688.000000	96.967595 
2687.000000	96.970424 
2686.000000	96.975795 
2685.000000	96.981579 
2684.000000	96.985994 
2683.000000	96.989530 
2682.000000	96.993091 
2681.000000	96.996291 
2680.000000	96.998649 
2679.000000	97.000550 
2678.000000	97.002084 
2677.000000	97.002625 
2676.000000	97.002372 
2675.000000	97.002712 
2674.000000	97.004317 
2673.000000	97.006508 
2672.000000	97.008866 
2671.000000	97.011669 
2670.000000	97.014275 
2669.000000	97.015007 
2668.000000	97.013242 
2667.000000	97.009837 
2666.000000	97.005077 
2665.000000	96.998290 
2664.000000	96.989940 
2663.000000	96.982073 
2662.000000	96.975825 
2661.000000	96.970364 
2660.000000	96.964814 
2659.000000	96.959470 
2658.000000	96.954618 
2657.000000	96.950033 
2656.000000	96.946167 
2655.000000	96.943909 
2654.000000	96.942780 
2653.000000	96.941325 
2652.000000	96.939648 
2651.000000	96.939396 
2650.000000	96.940762 
2649.000000	96.941822 
2648.000000	96.941353 
2647.000000	96.940094 
2646.000000	96.938743 
2645.000000	96.937122 
2644.000000	96.935976 
2643.000000	96.937066 
2642.000000	96.940552 
2641.000000	96.944445 
2640.000000	96.947327 
2639.000000	96.949393 
2638.000000	96.950514 
2637.000000	96.949796 
2636.000000	96.947809 
2635.000000	96.946593 
2634.000000	96.946906 
2633.000000	96.947854 
2632.000000	96.949490 
2631.000000	96.952700 
2630.000000	96.956082 
2629.000000	96.956433 
2628.000000	96.953474 
2627.000000	96.950857 
2626.000000	96.951218 
2625.000000	96.953350 
2624.000000	96.955532 
2623.000000	96.958362 
2622.000000	96.962390 
2621.000000	96.965865 
2620.000000	96.966866 
2619.000000	96.965528 
2618.000000	96.962698 
2617.000000	96.958544 
2616.000000	96.953783 
2615.000000	96.950170 
2614.000000	96.948587 
2613.000000	96.948496 
2612.000000	96.949703 
2611.000000	96.952476 
2610.000000	96.955582 
2609.000000	96.956959 
2608.000000	96.956696 
2607.000000	96.956760 
2606.000000	96.957676 
2605.000000	96.958397 
2604.000000	96.959276 
2603.000000	96.961645 
2602.000000	96.964409 
2601.000000	96.965035 
2600.000000	96.964219 
2599.000000	96.965462 
2598.000000	96.969303 
2597.000000	96.972254 
2596.000000	96.972428 
2595.000000	96.972092 
2594.000000	96.973445 
2593.000000	96.975966 
2592.000000	96.979161 
2591.000000	96.983960 
2590.000000	96.989947 
2589.000000	96.994831 
2588.000000	96.997850 
2587.000000	97.000225 
2586.000000	97.001835 
2585.000000	97.001544 
2584.000000	97.001315 
2583.000000	97.005000 
2582.000000	97.012020 
2581.000000	97.017283 
2580.000000	97.018682 
2579.000000	97.019657 
2578.000000	97.022685 
2577.000000	97.025346 
2576.000000	97.025228 
2575.000000	97.023861 
2574.000000	97.023200 
2573.000000	97.022650 
2572.000000	97.022065 
2571.000000	97.023509 
2570.000000	97.027483 
2569.000000	97.031160 
2568.000000	97.032684 
2567.000000	97.033577 
2566.000000	97.034979 
2565.000000	97.035635 
2564.000000	97.035585 
2563.000000	97.037581 
2562.000000	97.042454 
2561.000000	97.047032 
2560.000000	97.048962 
2559.000000	97.049701 
2558.000000	97.050646 
2557.000000	97.050505 
2556.000000	97.049047 
2555.000000	97.049308 
2554.000000	97.053073 
2553.000000	97.057656 
2552.000000	97.059863 
2551.000000	97.060017 
2550.000000	97.059720 
2549.000000	97.058798 
2548.000000	97.056940 
2547.000000	97.055501 
2546.000000	97.055397 
2545.000000	97.055627 
2544.000000	97.055381 
2543.000000	97.055020 
2542.000000	97.053935 
2541.000000	97.050417 
2540.000000	97.044550 
2539.000000	97.038037 
2538.000000	97.030558 
2537.000000	97.019857 
2536.000000	97.006017 
2535.000000	96.991861 
2534.000000	96.978681 
2533.000000	96.965689 
2532.000000	96.953868 
2531.000000	96.945253 
2530.000000	96.937574 
2529.000000	96.925097 
2528.000000	96.906737 
2527.000000	96.888444 
2526.000000	96.875410 
2525.000000	96.866534 
2524.000000	96.858549 
2523.000000	96.850901 
2522.000000	96.844055 
2521.000000	96.837057 
2520.000000	96.829448 
2519.000000	96.822429 
2518.000000	96.816322 
2517.000000	96.810067 
2516.000000	96.804378 
2515.000000	96.801695 
2514.000000	96.801946 
2513.000000	96.802419 
2512.000000	96.802948 
2511.000000	96.806984 
2510.000000	96.816218 
2509.000000	96.828425 
2508.000000	96.841905 
2507.000000	96.857514 
2506.000000	96.874897 
2505.000000	96.891534 
2504.000000	96.907407 
2503.000000	96.926038 
2502.000000	96.948828 
2501.000000	96.972608 
2500.000000	96.994627 
2499.000000	97.015653 
2498.000000	97.036258 
2497.000000	97.054657 
2496.000000	97.070426 
2495.000000	97.086042 
2494.000000	97.102474 
2493.000000	97.117402 
2492.000000	97.129951 
2491.000000	97.142942 
2490.000000	97.158013 
2489.000000	97.172344 
2488.000000	97.182627 
2487.000000	97.189088 
2486.000000	97.193907 
2485.000000	97.199019 
2484.000000	97.206640 
2483.000000	97.218116 
2482.000000	97.230964 
2481.000000	97.240877 
2480.000000	97.247551 
2479.000000	97.254290 
2478.000000	97.261292 
2477.000000	97.264682 
2476.000000	97.263715 
2475.000000	97.263421 
2474.000000	97.267628 
2473.000000	97.274073 
2472.000000	97.278893 
2471.000000	97.281596 
2470.000000	97.283126 
2469.000000	97.283198 
2468.000000	97.282247 
2467.000000	97.282476 
2466.000000	97.284610 
2465.000000	97.286622 
2464.000000	97.287265 
2463.000000	97.287686 
2462.000000	97.288386 
2461.000000	97.288135 
2460.000000	97.287089 
2459.000000	97.287278 
2458.000000	97.288853 
2457.000000	97.289459 
2456.000000	97.288254 
2455.000000	97.286912 
2454.000000	97.286125 
2453.000000	97.285218 
2452.000000	97.285626 
2451.000000	97.290182 
2450.000000	97.298212 
2449.000000	97.305774 
2448.000000	97.311334 
2447.000000	97.316497 
2446.000000	97.320847 
2445.000000	97.321665 
2444.000000	97.319721 
2443.000000	97.319719 
2442.000000	97.323621 
2441.000000	97.328807 
2440.000000	97.333822 
2439.000000	97.340227 
2438.000000	97.347399 
2437.000000	97.351441 
2436.000000	97.351385 
2435.000000	97.351187 
2434.000000	97.353664 
2433.000000	97.357597 
2432.000000	97.362220 
2431.000000	97.368789 
2430.000000	97.375879 
2429.000000	97.379174 
2428.000000	97.378497 
2427.000000	97.379383 
2426.000000	97.384830 
2425.000000	97.390855 
2424.000000	97.393182 
2423.000000	97.393198 
2422.000000	97.394066 
2421.000000	97.395700 
2420.000000	97.397084 
2419.000000	97.399435 
2418.000000	97.403676 
2417.000000	97.408068 
2416.000000	97.410933 
2415.000000	97.412653 
2414.000000	97.413250 
2413.000000	97.411460 
2412.000000	97.407821 
2411.000000	97.405193 
2410.000000	97.405007 
2409.000000	97.406617 
2408.000000	97.411049 
2407.000000	97.420808 
2406.000000	97.434685 
2405.000000	97.447457 
2404.000000	97.456205 
2403.000000	97.462285 
2402.000000	97.466006 
2401.000000	97.464916 
2400.000000	97.459355 
2399.000000	97.454482 
2398.000000	97.453950 
2397.000000	97.455694 
2396.000000	97.456450 
2395.000000	97.456434 
2394.000000	97.457042 
2393.000000	97.457650 
2392.000000	97.457289 
2391.000000	97.456381 
2390.000000	97.454863 
2389.000000	97.451553 
2388.000000	97.446857 
2387.000000	97.443058 
2386.000000	97.440688 
2385.000000	97.438016 
2384.000000	97.435672 
2383.000000	97.438637 
2382.000000	97.452090 
2381.000000	97.477786 
2380.000000	97.514800 
2379.000000	97.559335 
2378.000000	97.602033 
2377.000000	97.631133 
2376.000000	97.642414 
2375.000000	97.641725 
2374.000000	97.635210 
2373.000000	97.623116 
2372.000000	97.606964 
2371.000000	97.594672 
2370.000000	97.591393 
2369.000000	97.592383 
2368.000000	97.591694 
2367.000000	97.589854 
2366.000000	97.587690 
2365.000000	97.583843 
2364.000000	97.583772 
2363.000000	97.595802 
2362.000000	97.613067 
2361.000000	97.617235 
2360.000000	97.603394 
2359.000000	97.587024 
2358.000000	97.584823 
2357.000000	97.599374 
2356.000000	97.625759 
2355.000000	97.654936 
2354.000000	97.678081 
2353.000000	97.691740 
2352.000000	97.695160 
2351.000000	97.686143 
2350.000000	97.661794 
2349.000000	97.627127 
2348.000000	97.593761 
2347.000000	97.571498 
2346.000000	97.561451 
2345.000000	97.553199 
2344.000000	97.539912 
2343.000000	97.523453 
2342.000000	97.511519 
2341.000000	97.509136 
2340.000000	97.514336 
2339.000000	97.522390 
2338.000000	97.526368 
2337.000000	97.523937 
2336.000000	97.518442 
2335.000000	97.514897 
2334.000000	97.511791 
2333.000000	97.507629 
2332.000000	97.504019 
2331.000000	97.505230 
2330.000000	97.503918 
2329.000000	97.487751 
2328.000000	97.448763 
2327.000000	97.387291 
2326.000000	97.309386 
2325.000000	97.229244 
2324.000000	97.173617 
2323.000000	97.164356 
2322.000000	97.196781 
2321.000000	97.243371 
2320.000000	97.280616 
2319.000000	97.304720 
2318.000000	97.318083 
2317.000000	97.324766 
2316.000000	97.331093 
2315.000000	97.344505 
2314.000000	97.360819 
2313.000000	97.369235 
2312.000000	97.365505 
2311.000000	97.356876 
2310.000000	97.348484 
2309.000000	97.338981 
2308.000000	97.328474 
2307.000000	97.322187 
2306.000000	97.321148 
2305.000000	97.319772 
2304.000000	97.314279 
2303.000000	97.307938 
2302.000000	97.303597 
2301.000000	97.300063 
2300.000000	97.295469 
2299.000000	97.290798 
2298.000000	97.285562 
2297.000000	97.278267 
2296.000000	97.270257 
2295.000000	97.264711 
2294.000000	97.260400 
2293.000000	97.253113 
2292.000000	97.242844 
2291.000000	97.232496 
2290.000000	97.220898 
2289.000000	97.204579 
2288.000000	97.186985 
2287.000000	97.176307 
2286.000000	97.174071 
2285.000000	97.174341 
2284.000000	97.175260 
2283.000000	97.181482 
2282.000000	97.193930 
2281.000000	97.207316 
2280.000000	97.220324 
2279.000000	97.237725 
2278.000000	97.259322 
2277.000000	97.277307 
2276.000000	97.287943 
2275.000000	97.295845 
2274.000000	97.303272 
2273.000000	97.306536 
2272.000000	97.306299 
2271.000000	97.310048 
2270.000000	97.319596 
2269.000000	97.327613 
2268.000000	97.330883 
2267.000000	97.336034 
2266.000000	97.347309 
2265.000000	97.359534 
2264.000000	97.367893 
2263.000000	97.373716 
2262.000000	97.376549 
2261.000000	97.371404 
2260.000000	97.358761 
2259.000000	97.346818 
2258.000000	97.340184 
2257.000000	97.337127 
2256.000000	97.340108 
2255.000000	97.356041 
2254.000000	97.381693 
2253.000000	97.402056 
2252.000000	97.408382 
2251.000000	97.406088 
2250.000000	97.401001 
2249.000000	97.391591 
2248.000000	97.379662 
2247.000000	97.374009 
2246.000000	97.377341 
2245.000000	97.380852 
2244.000000	97.378333 
2243.000000	97.374239 
2242.000000	97.372992 
2241.000000	97.372367 
2240.000000	97.372046 
2239.000000	97.376069 
2238.000000	97.381991 
2237.000000	97.380577 
2236.000000	97.371342 
2235.000000	97.365344 
2234.000000	97.367480 
2233.000000	97.369597 
2232.000000	97.366464 
2231.000000	97.364572 
2230.000000	97.369052 
2229.000000	97.375433 
2228.000000	97.380482 
2227.000000	97.387807 
2226.000000	97.396844 
2225.000000	97.400043 
2224.000000	97.396743 
2223.000000	97.396337 
2222.000000	97.402443 
2221.000000	97.407577 
2220.000000	97.408212 
2219.000000	97.410609 
2218.000000	97.417091 
2217.000000	97.421847 
2216.000000	97.424807 
2215.000000	97.433151 
2214.000000	97.444029 
2213.000000	97.443279 
2212.000000	97.427974 
2211.000000	97.413497 
2210.000000	97.411493 
2209.000000	97.417190 
2208.000000	97.423922 
2207.000000	97.432715 
2206.000000	97.440460 
2205.000000	97.436717 
2204.000000	97.421326 
2203.000000	97.408631 
2202.000000	97.406442 
2201.000000	97.406676 
2200.000000	97.403035 
2199.000000	97.401098 
2198.000000	97.403694 
2197.000000	97.403511 
2196.000000	97.398018 
2195.000000	97.394967 
2194.000000	97.395819 
2193.000000	97.391013 
2192.000000	97.378856 
2191.000000	97.371554 
2190.000000	97.374936 
2189.000000	97.378942 
2188.000000	97.374996 
2187.000000	97.366188 
2186.000000	97.354898 
2185.000000	97.340194 
2184.000000	97.333627 
2183.000000	97.355538 
2182.000000	97.405883 
2181.000000	97.456832 
2180.000000	97.484027 
2179.000000	97.488408 
2178.000000	97.482132 
2177.000000	97.474951 
2176.000000	97.478682 
2175.000000	97.500365 
2174.000000	97.523282 
2173.000000	97.516693 
2172.000000	97.472151 
2171.000000	97.411233 
2170.000000	97.353926 
2169.000000	97.302772 
2168.000000	97.260352 
2167.000000	97.236664 
2166.000000	97.229977 
2165.000000	97.221640 
2164.000000	97.199824 
2163.000000	97.172373 
2162.000000	97.157302 
2161.000000	97.186408 
2160.000000	97.310359 
2159.000000	97.552339 
2158.000000	97.842471 
2157.000000	98.054011 
2156.000000	98.124704 
2155.000000	98.095533 
2154.000000	98.031736 
2153.000000	97.964057 
2152.000000	97.903532 
2151.000000	97.860853 
2150.000000	97.835312 
2149.000000	97.813931 
2148.000000	97.796175 
2147.000000	97.796357 
2146.000000	97.813795 
2145.000000	97.826228 
2144.000000	97.821570 
2143.000000	97.811863 
2142.000000	97.807814 
2141.000000	97.803972 
2140.000000	97.797597 
2139.000000	97.798789 
2138.000000	97.812823 
2137.000000	97.832514 
2136.000000	97.855312 
2135.000000	97.887359 
2134.000000	97.922964 
2133.000000	97.941282 
2132.000000	97.931836 
2131.000000	97.905420 
2130.000000	97.874074 
2129.000000	97.839339 
2128.000000	97.804150 
2127.000000	97.777583 
2126.000000	97.760769 
2125.000000	97.743435 
2124.000000	97.720384 
2123.000000	97.697713 
2122.000000	97.678376 
2121.000000	97.656609 
2120.000000	97.631517 
2119.000000	97.611104 
2118.000000	97.596821 
2117.000000	97.578702 
2116.000000	97.552255 
2115.000000	97.527142 
2114.000000	97.512336 
2113.000000	97.505418 
2112.000000	97.502031 
2111.000000	97.503441 
2110.000000	97.508427 
2109.000000	97.510419 
2108.000000	97.508896 
2107.000000	97.511900 
2106.000000	97.521419 
2105.000000	97.528198 
2104.000000	97.525953 
2103.000000	97.519205 
2102.000000	97.512675 
2101.000000	97.505679 
2100.000000	97.500541 
2099.000000	97.504286 
2098.000000	97.518617 
2097.000000	97.539895 
2096.000000	97.569067 
2095.000000	97.606775 
2094.000000	97.639169 
2093.000000	97.647413 
2092.000000	97.632777 
2091.000000	97.614403 
2090.000000	97.600646 
2089.000000	97.582503 
2088.000000	97.557042 
2087.000000	97.536320 
2086.000000	97.526765 
2085.000000	97.519682 
2084.000000	97.508888 
2083.000000	97.500601 
2082.000000	97.498523 
2081.000000	97.496016 
2080.000000	97.489984 
2079.000000	97.486468 
2078.000000	97.486216 
2077.000000	97.481750 
2076.000000	97.474462 
2075.000000	97.476368 
2074.000000	97.489233 
2073.000000	97.500344 
2072.000000	97.504698 
2071.000000	97.511768 
2070.000000	97.524873 
2069.000000	97.535040 
2068.000000	97.541049 
2067.000000	97.553013 
2066.000000	97.569344 
2065.000000	97.573857 
2064.000000	97.564946 
2063.000000	97.561503 
2062.000000	97.570628 
2061.000000	97.576751 
2060.000000	97.570998 
2059.000000	97.565111 
2058.000000	97.566222 
2057.000000	97.565701 
2056.000000	97.562672 
2055.000000	97.568267 
2054.000000	97.572165 
2053.000000	97.538093 
2052.000000	97.455653 
2051.000000	97.370831 
2050.000000	97.340774 
2049.000000	97.375618 
2048.000000	97.441845 
2047.000000	97.506392 
2046.000000	97.553904 
2045.000000	97.577217 
2044.000000	97.581001 
2043.000000	97.582335 
2042.000000	97.587438 
2041.000000	97.582558 
2040.000000	97.562007 
2039.000000	97.542474 
2038.000000	97.534625 
2037.000000	97.528230 
2036.000000	97.521001 
2035.000000	97.534037 
2034.000000	97.577209 
2033.000000	97.626601 
2032.000000	97.659279 
2031.000000	97.682763 
2030.000000	97.708784 
2029.000000	97.727925 
2028.000000	97.732251 
2027.000000	97.734351 
2026.000000	97.742507 
2025.000000	97.744795 
2024.000000	97.736879 
2023.000000	97.737040 
2022.000000	97.754753 
2021.000000	97.773108 
2020.000000	97.781122 
2019.000000	97.794086 
2018.000000	97.821777 
2017.000000	97.844645 
2016.000000	97.844172 
2015.000000	97.830076 
2014.000000	97.815991 
2013.000000	97.797474 
2012.000000	97.770834 
2011.000000	97.748157 
2010.000000	97.739608 
2009.000000	97.744033 
2008.000000	97.766007 
2007.000000	97.813717 
2006.000000	97.870122 
2005.000000	97.897791 
2004.000000	97.884825 
2003.000000	97.855501 
2002.000000	97.828660 
2001.000000	97.799085 
2000.000000	97.765077 
1999.000000	97.740287 
1998.000000	97.726968 
1997.000000	97.708687 
1996.000000	97.682697 
1995.000000	97.670875 
1994.000000	97.684557 
1993.000000	97.703276 
1992.000000	97.705103 
1991.000000	97.697352 
1990.000000	97.693352 
1989.000000	97.685681 
1988.000000	97.664496 
1987.000000	97.636249 
1986.000000	97.608117 
1985.000000	97.575322 
1984.000000	97.536448 
1983.000000	97.499172 
1982.000000	97.461390 
1981.000000	97.414111 
1980.000000	97.375008 
1979.000000	97.389991 
1978.000000	97.479776 
1977.000000	97.606045 
1976.000000	97.713316 
1975.000000	97.781558 
1974.000000	97.816892 
1973.000000	97.825637 
1972.000000	97.821039 
1971.000000	97.825198 
1970.000000	97.844257 
1969.000000	97.863002 
1968.000000	97.873310 
1967.000000	97.883848 
1966.000000	97.892958 
1965.000000	97.883678 
1964.000000	97.857514 
1963.000000	97.840834 
1962.000000	97.848423 
1961.000000	97.866826 
1960.000000	97.882667 
1959.000000	97.899745 
1958.000000	97.916327 
1957.000000	97.915757 
1956.000000	97.893296 
1955.000000	97.866488 
1954.000000	97.847851 
1953.000000	97.830196 
1952.000000	97.808968 
1951.000000	97.794579 
1950.000000	97.792336 
1949.000000	97.793161 
1948.000000	97.792866 
1947.000000	97.799254 
1946.000000	97.813798 
1945.000000	97.827644 
1944.000000	97.839785 
1943.000000	97.855284 
1942.000000	97.863256 
1941.000000	97.846690 
1940.000000	97.813662 
1939.000000	97.789222 
1938.000000	97.781068 
1937.000000	97.774124 
1936.000000	97.761072 
1935.000000	97.754925 
1934.000000	97.761718 
1933.000000	97.765910 
1932.000000	97.756818 
1931.000000	97.745015 
1930.000000	97.739742 
1929.000000	97.734092 
1928.000000	97.723242 
1927.000000	97.718196 
1926.000000	97.730105 
1925.000000	97.758105 
1924.000000	97.794443 
1923.000000	97.822924 
1922.000000	97.818811 
1921.000000	97.775367 
1920.000000	97.724050 
1919.000000	97.708572 
1918.000000	97.732721 
1917.000000	97.754933 
1916.000000	97.750340 
1915.000000	97.734380 
1914.000000	97.724639 
1913.000000	97.720740 
1912.000000	97.722955 
1911.000000	97.741748 
1910.000000	97.773692 
1909.000000	97.792687 
1908.000000	97.784370 
1907.000000	97.764948 
1906.000000	97.751078 
1905.000000	97.740902 
1904.000000	97.732280 
1903.000000	97.732317 
1902.000000	97.739715 
1901.000000	97.741232 
1900.000000	97.733828 
1899.000000	97.731448 
1898.000000	97.741875 
1897.000000	97.756582 
1896.000000	97.768962 
1895.000000	97.780989 
1894.000000	97.786474 
1893.000000	97.774399 
1892.000000	97.755232 
1891.000000	97.756894 
1890.000000	97.783041 
1889.000000	97.799757 
1888.000000	97.788635 
1887.000000	97.770555 
1886.000000	97.764324 
1885.000000	97.763392 
1884.000000	97.756424 
1883.000000	97.747565 
1882.000000	97.742894 
1881.000000	97.737429 
1880.000000	97.728065 
1879.000000	97.722966 
1878.000000	97.725230 
1877.000000	97.723369 
1876.000000	97.711821 
1875.000000	97.702652 
1874.000000	97.702715 
1873.000000	97.700919 
1872.000000	97.693537 
1871.000000	97.703725 
1870.000000	97.754185 
1869.000000	97.821064 
1868.000000	97.854026 
1867.000000	97.844080 
1866.000000	97.812217 
1865.000000	97.773057 
1864.000000	97.739317 
1863.000000	97.724101 
1862.000000	97.726533 
1861.000000	97.730343 
1860.000000	97.725988 
1859.000000	97.720055 
1858.000000	97.716254 
1857.000000	97.707025 
1856.000000	97.692456 
1855.000000	97.685788 
1854.000000	97.691246 
1853.000000	97.696875 
1852.000000	97.695653 
1851.000000	97.700605 
1850.000000	97.724081 
1849.000000	97.752728 
1848.000000	97.760311 
1847.000000	97.744214 
1846.000000	97.732640 
1845.000000	97.752496 
1844.000000	97.795667 
1843.000000	97.827433 
1842.000000	97.820665 
1841.000000	97.777073 
1840.000000	97.728776 
1839.000000	97.708714 
1838.000000	97.716647 
1837.000000	97.723723 
1836.000000	97.714411 
1835.000000	97.697857 
1834.000000	97.678630 
1833.000000	97.649878 
1832.000000	97.621324 
1831.000000	97.625008 
1830.000000	97.664185 
1829.000000	97.689469 
1828.000000	97.673623 
1827.000000	97.645245 
1826.000000	97.640083 
1825.000000	97.653942 
1824.000000	97.654300 
1823.000000	97.633287 
1822.000000	97.605793 
1821.000000	97.582113 
1820.000000	97.568978 
1819.000000	97.577470 
1818.000000	97.605434 
1817.000000	97.624771 
1816.000000	97.612652 
1815.000000	97.581753 
1814.000000	97.558034 
1813.000000	97.545870 
1812.000000	97.532753 
1811.000000	97.515358 
1810.000000	97.497287 
1809.000000	97.470770 
1808.000000	97.427452 
1807.000000	97.373955 
1806.000000	97.319222 
1805.000000	97.262445 
1804.000000	97.203426 
1803.000000	97.148985 
1802.000000	97.098500 
1801.000000	97.033342 
1800.000000	96.949040 
1799.000000	96.879120 
1798.000000	96.847820 
1797.000000	96.833169 
1796.000000	96.800039 
1795.000000	96.751857 
1794.000000	96.738162 
1793.000000	96.803113 
1792.000000	96.922833 
1791.000000	97.028075 
1790.000000	97.081641 
1789.000000	97.089353 
1788.000000	97.080748 
1787.000000	97.089979 
1786.000000	97.129038 
1785.000000	97.173456 
1784.000000	97.191142 
1783.000000	97.183273 
1782.000000	97.178994 
1781.000000	97.190336 
1780.000000	97.196613 
1779.000000	97.183485 
1778.000000	97.160410 
1777.000000	97.133552 
1776.000000	97.092430 
1775.000000	97.034862 
1774.000000	96.992912 
1773.000000	97.001518 
1772.000000	97.034756 
1771.000000	97.046877 
1770.000000	97.040693 
1769.000000	97.025934 
1768.000000	96.994710 
1767.000000	96.936135 
1766.000000	96.853402 
1765.000000	96.759280 
1764.000000	96.672973 
1763.000000	96.614084 
1762.000000	96.579771 
1761.000000	96.537484 
1760.000000	96.459525 
1759.000000	96.347925 
1758.000000	96.220301 
1757.000000	96.077497 
1756.000000	95.900936 
1755.000000	95.692769 
1754.000000	95.475316 
1753.000000	95.259817 
1752.000000	95.025306 
1751.000000	94.727355 
1750.000000	94.341634 
1749.000000	93.872667 
1748.000000	93.335189 
1747.000000	92.767280 
1746.000000	92.203368 
1745.000000	91.621114 
1744.000000	90.972597 
1743.000000	90.260760 
1742.000000	89.529875 
1741.000000	88.777693 
1740.000000	87.966110 
1739.000000	87.147578 
1738.000000	86.448867 
1737.000000	85.884490 
1736.000000	85.349328 
1735.000000	84.693297 
1734.000000	83.844478 
1733.000000	83.044100 
1732.000000	82.479578 
1731.000000	82.025103 
1730.000000	81.561563 
1729.000000	81.089903 
1728.000000	80.674601 
1727.000000	80.354164 
1726.000000	80.117618 
1725.000000	79.936342 
1724.000000	79.800237 
1723.000000	79.722543 
1722.000000	79.708448 
1721.000000	79.746806 
1720.000000	79.848895 
1719.000000	80.070245 
1718.000000	80.443648 
1717.000000	80.880463 
1716.000000	81.286972 
1715.000000	81.672056 
1714.000000	82.045666 
1713.000000	82.395360 
1712.000000	82.729830 
1711.000000	83.069989 
1710.000000	83.407546 
1709.000000	83.705037 
1708.000000	83.950677 
1707.000000	84.182176 
1706.000000	84.410878 
1705.000000	84.574754 
1704.000000	84.641909 
1703.000000	84.648817 
1702.000000	84.622264 
1701.000000	84.550061 
1700.000000	84.441388 
1699.000000	84.404678 
1698.000000	84.403674 
1697.000000	84.287725 
1696.000000	84.019618 
1695.000000	83.760340 
1694.000000	83.627261 
1693.000000	83.539856 
1692.000000	83.444896 
1691.000000	83.361977 
1690.000000	83.301071 
1689.000000	83.237436 
1688.000000	83.160369 
1687.000000	83.098172 
1686.000000	83.090829 
1685.000000	83.164123 
1684.000000	83.290682 
1683.000000	83.473729 
1682.000000	83.715347 
1681.000000	83.957730 
1680.000000	84.183955 
1679.000000	84.393233 
1678.000000	84.587465 
1677.000000	84.794637 
1676.000000	85.065799 
1675.000000	85.400459 
1674.000000	85.719106 
1673.000000	85.961919 
1672.000000	86.147675 
1671.000000	86.330776 
1670.000000	86.527598 
1669.000000	86.706546 
1668.000000	86.852405 
1667.000000	86.962700 
1666.000000	87.035432 
1665.000000	87.089404 
1664.000000	87.158510 
1663.000000	87.252248 
1662.000000	87.341761 
1661.000000	87.409604 
1660.000000	87.461081 
1659.000000	87.501168 
1658.000000	87.525863 
1657.000000	87.519792 
1656.000000	87.475239 
1655.000000	87.420826 
1654.000000	87.402084 
1653.000000	87.394384 
1652.000000	87.470558 
1651.000000	87.602121 
1650.000000	87.650842 
1649.000000	87.642289 
1648.000000	87.639611 
1647.000000	87.642992 
1646.000000	87.624357 
1645.000000	87.625338 
1644.000000	87.648667 
1643.000000	87.668381 
1642.000000	87.680752 
1641.000000	87.692383 
1640.000000	87.705739 
1639.000000	87.716556 
1638.000000	87.724072 
1637.000000	87.744679 
1636.000000	87.792755 
1635.000000	87.877457 
1634.000000	88.008062 
1633.000000	88.137320 
1632.000000	88.238847 
1631.000000	88.327278 
1630.000000	88.420054 
1629.000000	88.529909 
1628.000000	88.661195 
1627.000000	88.798411 
1626.000000	88.923560 
1625.000000	89.049814 
1624.000000	89.214628 
1623.000000	89.416178 
1622.000000	89.597297 
1621.000000	89.720943 
1620.000000	89.793100 
1619.000000	89.846638 
1618.000000	89.923786 
1617.000000	90.043114 
1616.000000	90.178130 
1615.000000	90.285284 
1614.000000	90.335482 
1613.000000	90.344429 
1612.000000	90.355346 
1611.000000	90.391489 
1610.000000	90.444217 
1609.000000	90.507643 
1608.000000	90.595898 
1607.000000	90.712228 
1606.000000	90.841124 
1605.000000	90.978007 
1604.000000	91.132599 
1603.000000	91.298622 
1602.000000	91.446842 
1601.000000	91.562710 
1600.000000	91.661403 
1599.000000	91.754282 
1598.000000	91.833751 
1597.000000	91.896039 
1596.000000	91.950157 
1595.000000	91.993383 
1594.000000	92.006280 
1593.000000	91.987243 
1592.000000	91.958503 
1591.000000	91.928758 
1590.000000	91.883496 
1589.000000	91.820877 
1588.000000	91.764051 
1587.000000	91.725632 
1586.000000	91.692302 
1585.000000	91.656376 
1584.000000	91.625994 
1583.000000	91.599667 
1582.000000	91.559676 
1581.000000	91.498066 
1580.000000	91.423650 
1579.000000	91.343106 
1578.000000	91.258199 
1577.000000	91.175506 
1576.000000	91.105794 
1575.000000	91.055660 
1574.000000	90.997504 
1573.000000	90.899370 
1572.000000	90.778745 
1571.000000	90.669903 
1570.000000	90.567277 
1569.000000	90.450584 
1568.000000	90.346833 
1567.000000	90.259425 
1566.000000	90.155277 
1565.000000	90.022740 
1564.000000	89.877849 
1563.000000	89.729063 
1562.000000	89.560121 
1561.000000	89.375551 
1560.000000	89.240115 
1559.000000	89.112973 
1558.000000	88.916261 
1557.000000	88.849213 
1556.000000	88.822316 
1555.000000	88.747855 
1554.000000	88.622268 
1553.000000	88.482713 
1552.000000	88.359906 
1551.000000	88.245116 
1550.000000	88.094732 
1549.000000	87.900798 
1548.000000	87.722519 
1547.000000	87.602478 
1546.000000	87.524288 
1545.000000	87.432573 
1544.000000	87.287169 
1543.000000	87.111673 
1542.000000	86.940439 
1541.000000	86.733271 
1540.000000	86.420121 
1539.000000	86.141627 
1538.000000	86.035759 
1537.000000	85.980723 
1536.000000	85.897662 
1535.000000	85.787402 
1534.000000	85.633754 
1533.000000	85.413403 
1532.000000	85.201017 
1531.000000	85.054987 
1530.000000	84.935167 
1529.000000	84.800081 
1528.000000	84.648709 
1527.000000	84.492254 
1526.000000	84.323773 
1525.000000	84.139656 
1524.000000	83.968126 
1523.000000	83.835616 
1522.000000	83.702311 
1521.000000	83.508918 
1520.000000	83.337228 
1519.000000	83.256139 
1518.000000	83.215098 
1517.000000	83.143894 
1516.000000	83.038365 
1515.000000	82.966294 
1514.000000	82.945285 
1513.000000	82.950734 
1512.000000	82.980511 
1511.000000	83.044099 
1510.000000	83.128378 
1509.000000	83.207801 
1508.000000	83.254431 
1507.000000	83.181277 
1506.000000	83.031846 
1505.000000	83.031240 
1504.000000	83.129280 
1503.000000	83.235586 
1502.000000	83.325808 
1501.000000	83.386174 
1500.000000	83.420447 
1499.000000	83.462255 
1498.000000	83.526760 
1497.000000	83.564878 
1496.000000	83.545530 
1495.000000	83.517610 
1494.000000	83.500820 
1493.000000	83.469541 
1492.000000	83.427878 
1491.000000	83.394335 
1490.000000	83.317126 
1489.000000	83.108148 
1488.000000	82.805547 
1487.000000	82.506514 
1486.000000	82.223057 
1485.000000	81.925401 
1484.000000	81.607700 
1483.000000	81.267711 
1482.000000	80.873732 
1481.000000	80.406402 
1480.000000	79.920548 
1479.000000	79.478513 
1478.000000	79.065999 
1477.000000	78.636649 
1476.000000	78.207083 
1475.000000	77.837563 
1474.000000	77.504770 
1473.000000	77.093971 
1472.000000	76.608987 
1471.000000	76.224154 
1470.000000	75.977508 
1469.000000	75.779805 
1468.000000	75.582165 
1467.000000	75.378598 
1466.000000	75.153225 
1465.000000	74.887038 
1464.000000	74.632021 
1463.000000	74.470636 
1462.000000	74.393386 
1461.000000	74.345813 
1460.000000	74.311585 
1459.000000	74.305377 
1458.000000	74.301454 
1457.000000	74.216185 
1456.000000	74.107651 
1455.000000	74.083435 
1454.000000	74.090370 
1453.000000	74.074603 
1452.000000	74.039805 
1451.000000	74.010768 
1450.000000	73.987204 
1449.000000	73.940610 
1448.000000	73.855610 
1447.000000	73.752950 
1446.000000	73.656064 
1445.000000	73.558884 
1444.000000	73.451476 
1443.000000	73.337535 
1442.000000	73.217750 
1441.000000	73.090734 
1440.000000	72.968248 
1439.000000	72.863447 
1438.000000	72.758118 
1437.000000	72.608311 
1436.000000	72.436996 
1435.000000	72.337150 
1434.000000	72.309729 
1433.000000	72.294340 
1432.000000	72.265525 
1431.000000	72.227935 
1430.000000	72.179978 
1429.000000	72.115868 
1428.000000	72.055945 
1427.000000	72.024266 
1426.000000	72.009317 
1425.000000	71.973867 
1424.000000	71.898249 
1423.000000	71.812329 
1422.000000	71.750905 
1421.000000	71.709516 
1420.000000	71.664880 
1419.000000	71.595051 
1418.000000	71.505912 
1417.000000	71.422187 
1416.000000	71.354518 
1415.000000	71.312337 
1414.000000	71.298703 
1413.000000	71.303083 
1412.000000	71.315894 
1411.000000	71.336602 
1410.000000	71.365227 
1409.000000	71.403296 
1408.000000	71.464483 
1407.000000	71.560808 
1406.000000	71.677795 
1405.000000	71.782903 
1404.000000	71.865039 
1403.000000	71.944099 
1402.000000	72.032981 
1401.000000	72.130823 
1400.000000	72.241656 
1399.000000	72.367807 
1398.000000	72.500040 
1397.000000	72.627752 
1396.000000	72.747654 
1395.000000	72.854527 
1394.000000	72.945168 
1393.000000	73.031309 
1392.000000	73.123495 
1391.000000	73.223106 
1390.000000	73.327045 
1389.000000	73.430305 
1388.000000	73.521973 
1387.000000	73.582012 
1386.000000	73.603335 
1385.000000	73.606362 
1384.000000	73.615041 
1383.000000	73.637303 
1382.000000	73.665182 
1381.000000	73.690380 
1380.000000	73.714858 
1379.000000	73.742429 
1378.000000	73.774167 
1377.000000	73.818423 
1376.000000	73.890856 
1375.000000	73.993888 
1374.000000	74.112191 
1373.000000	74.248970 
1372.000000	74.434540 
1371.000000	74.686318 
1370.000000	74.997186 
1369.000000	75.351431 
1368.000000	75.734075 
1367.000000	76.132229 
1366.000000	76.541038 
1365.000000	76.974373 
1364.000000	77.450841 
1363.000000	77.946549 
1362.000000	78.387905 
1361.000000	78.737663 
1360.000000	79.029816 
1359.000000	79.302656 
1358.000000	79.563603 
1357.000000	79.811249 
1356.000000	80.051288 
1355.000000	80.283516 
1354.000000	80.496776 
1353.000000	80.689590 
1352.000000	80.878087 
1351.000000	81.071407 
1350.000000	81.258495 
1349.000000	81.428618 
1348.000000	81.586438 
1347.000000	81.738112 
1346.000000	81.879616 
1345.000000	82.009564 
1344.000000	82.139569 
1343.000000	82.283928 
1342.000000	82.447881 
1341.000000	82.624901 
1340.000000	82.790278 
1339.000000	82.906779 
1338.000000	82.962318 
1337.000000	82.986836 
1336.000000	83.015896 
1335.000000	83.058450 
1334.000000	83.103891 
1333.000000	83.145333 
1332.000000	83.182836 
1331.000000	83.209039 
1330.000000	83.209320 
1329.000000	83.178361 
1328.000000	83.122260 
1327.000000	83.043231 
1326.000000	82.936520 
1325.000000	82.803892 
1324.000000	82.657118 
1323.000000	82.507263 
1322.000000	82.359149 
1321.000000	82.215158 
1320.000000	82.074601 
1319.000000	81.928816 
1318.000000	81.768283 
1317.000000	81.596341 
1316.000000	81.424829 
1315.000000	81.256656 
1314.000000	81.082814 
1313.000000	80.897938 
1312.000000	80.711054 
1311.000000	80.536056 
1310.000000	80.379010 
1309.000000	80.240270 
1308.000000	80.122358 
1307.000000	80.029094 
1306.000000	79.961662 
1305.000000	79.921587 
1304.000000	79.912830 
1303.000000	79.936022 
1302.000000	79.984356 
1301.000000	80.049959 
1300.000000	80.130253 
1299.000000	80.224077 
1298.000000	80.325763 
1297.000000	80.427127 
1296.000000	80.521273 
1295.000000	80.601146 
1294.000000	80.659134 
1293.000000	80.690992 
1292.000000	80.697078 
1291.000000	80.678551 
1290.000000	80.636342 
1289.000000	80.575522 
1288.000000	80.507784 
1287.000000	80.448504 
1286.000000	80.413454 
1285.000000	80.417457 
1284.000000	80.470175 
1283.000000	80.569025 
1282.000000	80.698368 
1281.000000	80.838426 
1280.000000	80.971751 
1279.000000	81.081456 
1278.000000	81.152319 
1277.000000	81.178058 
1276.000000	81.162988 
1275.000000	81.114571 
1274.000000	81.038188 
1273.000000	80.938820 
1272.000000	80.822690 
1271.000000	80.695623 
1270.000000	80.563069 
1269.000000	80.432497 
1268.000000	80.311540 
1267.000000	80.201733 
1266.000000	80.097068 
1265.000000	79.990478 
1264.000000	79.878335 
1263.000000	79.755905 
1262.000000	79.612229 
1261.000000	79.434518 
1260.000000	79.216864 
1259.000000	78.961712 
1258.000000	78.674486 
1257.000000	78.360393 
1256.000000	78.026021 
1255.000000	77.678782 
1254.000000	77.322463 
1253.000000	76.957047 
1252.000000	76.584794 
1251.000000	76.212118 
1250.000000	75.843850 
1249.000000	75.481131 
1248.000000	75.126898 
1247.000000	74.786835 
1246.000000	74.462773 
1245.000000	74.152801 
1244.000000	73.860527 
1243.000000	73.595219 
1242.000000	73.359898 
1241.000000	73.149368 
1240.000000	72.962626 
1239.000000	72.805467 
1238.000000	72.677831 
1237.000000	72.570825 
1236.000000	72.479824 
1235.000000	72.408772 
1234.000000	72.359472 
1233.000000	72.329882 
1232.000000	72.325631 
1231.000000	72.360126 
1230.000000	72.440718 
1229.000000	72.567315 
1228.000000	72.745327 
1227.000000	72.985164 
1226.000000	73.287301 
1225.000000	73.641463 
1224.000000	74.040389 
1223.000000	74.480417 
1222.000000	74.950028 
1221.000000	75.432306 
1220.000000	75.917700 
1219.000000	76.402761 
1218.000000	76.879581 
1217.000000	77.337753 
1216.000000	77.774021 
1215.000000	78.190965 
1214.000000	78.589666 
1213.000000	78.970538 
1212.000000	79.336730 
1211.000000	79.690417 
1210.000000	80.029850 
1209.000000	80.354498 
1208.000000	80.667871 
1207.000000	80.971859 
1206.000000	81.263908 
1205.000000	81.542200 
1204.000000	81.807299 
1203.000000	82.057010 
1202.000000	82.286996 
1201.000000	82.498358 
1200.000000	82.697599 
1199.000000	82.887979 
1198.000000	83.067349 
1197.000000	83.234526 
1196.000000	83.390834 
1195.000000	83.535239 
1194.000000	83.664783 
1193.000000	83.779910 
1192.000000	83.883333 
1191.000000	83.974768 
1190.000000	84.052709 
1189.000000	84.119383 
1188.000000	84.177573 
1187.000000	84.224905 
1186.000000	84.257916 
1185.000000	84.279229 
1184.000000	84.293983 
1183.000000	84.301580 
1182.000000	84.297638 
1181.000000	84.282024 
1180.000000	84.258071 
1179.000000	84.225254 
1178.000000	84.179604 
1177.000000	84.120341 
1176.000000	84.049843 
1175.000000	83.968353 
1174.000000	83.874057 
1173.000000	83.767530 
1172.000000	83.651925 
1171.000000	83.530545 
1170.000000	83.408703 
1169.000000	83.296857 
1168.000000	83.207992 
1167.000000	83.151915 
1166.000000	83.134059 
1165.000000	83.157782 
1164.000000	83.223046 
1163.000000	83.322386 
1162.000000	83.442438 
1161.000000	83.570599 
1160.000000	83.697164 
1159.000000	83.812992 
1158.000000	83.911243 
1157.000000	83.990766 
1156.000000	84.052370 
1155.000000	84.093360 
1154.000000	84.110438 
1153.000000	84.104878 
1152.000000	84.078912 
1151.000000	84.029755 
1150.000000	83.953005 
1149.000000	83.849389 
1148.000000	83.722744 
1147.000000	83.574088 
1146.000000	83.402877 
1145.000000	83.212009 
1144.000000	83.007612 
1143.000000	82.796418 
1142.000000	82.587105 
1141.000000	82.391996 
1140.000000	82.222997 
1139.000000	82.085926 
1138.000000	81.981586 
1137.000000	81.911800 
1136.000000	81.880760 
1135.000000	81.889930 
1134.000000	81.935704 
1133.000000	82.013373 
1132.000000	82.118830 
1131.000000	82.244906 
1130.000000	82.381601 
1129.000000	82.522376 
1128.000000	82.665372 
1127.000000	82.807108 
1126.000000	82.940693 
1125.000000	83.061399 
1124.000000	83.168542 
1123.000000	83.261991 
1122.000000	83.343237 
1121.000000	83.419536 
1120.000000	83.500276 
1119.000000	83.588961 
1118.000000	83.683970 
1117.000000	83.785206 
1116.000000	83.892156 
1115.000000	83.995860 
1114.000000	84.080889 
1113.000000	84.135819 
1112.000000	84.154685 
1111.000000	84.129345 
1110.000000	84.049488 
1109.000000	83.911460 
1108.000000	83.721062 
1107.000000	83.488627 
1106.000000	83.225260 
1105.000000	82.942260 
1104.000000	82.649815 
1103.000000	82.355592 
1102.000000	82.065987 
1101.000000	81.788873 
1100.000000	81.533240 
1099.000000	81.308536 
1098.000000	81.123564 
1097.000000	80.989159 
1096.000000	80.918116 
1095.000000	80.918153 
1094.000000	80.985488 
1093.000000	81.107941 
1092.000000	81.270452 
1091.000000	81.453460 
1090.000000	81.632102 
1089.000000	81.783834 
1088.000000	81.893858 
1087.000000	81.951379 
1086.000000	81.947331 
1085.000000	81.879078 
1084.000000	81.752292 
1083.000000	81.575626 
1082.000000	81.356877 
1081.000000	81.105610 
1080.000000	80.836077 
1079.000000	80.564663 
1078.000000	80.305704 
1077.000000	80.072111 
1076.000000	79.877505 
1075.000000	79.731607 
1074.000000	79.633016 
1073.000000	79.570957 
1072.000000	79.532094 
1071.000000	79.500062 
1070.000000	79.453672 
1069.000000	79.376029 
1068.000000	79.264444 
1067.000000	79.124164 
1066.000000	78.954085 
1065.000000	78.746207 
1064.000000	78.497986 
1063.000000	78.216092 
1062.000000	77.905913 
1061.000000	77.564437 
1060.000000	77.186113 
1059.000000	76.768386 
1058.000000	76.307510 
1057.000000	75.796089 
1056.000000	75.230147 
1055.000000	74.613264 
1054.000000	73.950231 
1053.000000	73.244537 
1052.000000	72.507048 
1051.000000	71.756354 
1050.000000	71.003060 
1049.000000	70.246838 
1048.000000	69.495383 
1047.000000	68.766520 
1046.000000	68.063554 
1045.000000	67.370328 
1044.000000	66.678553 
1043.000000	65.997191 
1042.000000	65.326893 
1041.000000	64.649833 
1040.000000	63.956113 
1039.000000	63.255616 
1038.000000	62.551656 
1037.000000	61.828271 
1036.000000	61.076508 
1035.000000	60.307303 
1034.000000	59.525307 
1033.000000	58.717191 
1032.000000	57.879888 
1031.000000	57.031041 
1030.000000	56.175638 
1029.000000	55.293371 
1028.000000	54.375317 
1027.000000	53.439691 
1026.000000	52.494790 
1025.000000	51.522995 
1024.000000	50.520735 
1023.000000	49.517361 
1022.000000	48.535363 
1021.000000	47.570352 
1020.000000	46.630853 
1019.000000	45.756522 
1018.000000	44.973226 
1017.000000	44.272081 
1016.000000	43.654352 
1015.000000	43.150164 
1014.000000	42.770014 
1013.000000	42.486325 
1012.000000	42.284566 
1011.000000	42.183200 
1010.000000	42.183951 
1009.000000	42.253451 
1008.000000	42.373874 
1007.000000	42.561060 
1006.000000	42.813453 
1005.000000	43.093348 
1004.000000	43.379371 
1003.000000	43.688776 
1002.000000	44.029759 
1001.000000	44.379941 
1000.000000	44.728738 
999.000000	 45.092802 
998.000000	 45.472960 
997.000000	 45.841857 
996.000000	 46.189946 
995.000000	 46.539560 
994.000000	 46.899096 
993.000000	 47.246579 
992.000000	 47.573526 
991.000000	 47.902281 
990.000000	 48.244428 
989.000000	 48.583914 
988.000000	 48.915867 
987.000000	 49.260598 
986.000000	 49.625241 
985.000000	 49.991625 
984.000000	 50.354744 
983.000000	 50.733812 
982.000000	 51.133514 
981.000000	 51.533305 
980.000000	 51.927162 
979.000000	 52.335814 
978.000000	 52.767298 
977.000000	 53.202358 
976.000000	 53.630909 
975.000000	 54.066617 
974.000000	 54.514262 
973.000000	 54.958061 
972.000000	 55.393169 
971.000000	 55.835054 
970.000000	 56.288058 
969.000000	 56.737329 
968.000000	 57.180673 
967.000000	 57.636349 
966.000000	 58.110207 
965.000000	 58.585806 
964.000000	 59.055598 
963.000000	 59.531609 
962.000000	 60.016957 
961.000000	 60.496417 
960.000000	 60.963385 
959.000000	 61.428241 
958.000000	 61.892774 
957.000000	 62.343012 
956.000000	 62.774556 
955.000000	 63.200164 
954.000000	 63.626131 
953.000000	 64.045094 
952.000000	 64.457532 
951.000000	 64.876340 
950.000000	 65.303973 
949.000000	 65.727936 
948.000000	 66.144142 
947.000000	 66.562258 
946.000000	 66.982999 
945.000000	 67.391712 
944.000000	 67.779752 
943.000000	 68.152778 
942.000000	 68.514062 
941.000000	 68.858610 
940.000000	 69.187942 
939.000000	 69.512723 
938.000000	 69.836190 
937.000000	 70.151043 
936.000000	 70.455923 
935.000000	 70.758889 
934.000000	 71.062051 
933.000000	 71.358932 
932.000000	 71.649849 
931.000000	 71.944498 
930.000000	 72.246143 
929.000000	 72.546898 
928.000000	 72.840747 
927.000000	 73.128159 
926.000000	 73.406797 
925.000000	 73.670864 
924.000000	 73.920860 
923.000000	 74.161564 
922.000000	 74.389499 
921.000000	 74.594263 
920.000000	 74.772527 
919.000000	 74.929170 
918.000000	 75.064983 
917.000000	 75.175691 
916.000000	 75.264179 
915.000000	 75.341732 
914.000000	 75.414830 
913.000000	 75.480836 
912.000000	 75.538427 
911.000000	 75.592123 
910.000000	 75.644925 
909.000000	 75.696603 
908.000000	 75.750670 
907.000000	 75.812877 
906.000000	 75.881560 
905.000000	 75.949628 
904.000000	 76.017518 
903.000000	 76.095396 
902.000000	 76.193000 
901.000000	 76.316477 
900.000000	 76.472872 
899.000000	 76.665509 
898.000000	 76.884485 
897.000000	 77.114357 
896.000000	 77.350981 
895.000000	 77.600411 
894.000000	 77.862827 
893.000000	 78.128832 
892.000000	 78.388909 
891.000000	 78.629728 
890.000000	 78.811610 
889.000000	 78.852171 
888.000000	 78.639377 
887.000000	 78.079601 
886.000000	 77.163352 
885.000000	 75.998307 
884.000000	 74.764243 
883.000000	 73.606674 
882.000000	 72.548040 
881.000000	 71.500981 
880.000000	 70.373773 
879.000000	 69.155092 
878.000000	 67.906124 
877.000000	 66.710198 
876.000000	 65.654644 
875.000000	 64.833676 
874.000000	 64.334182 
873.000000	 64.226878 
872.000000	 64.572930 
871.000000	 65.394027 
870.000000	 66.613582 
869.000000	 68.062836 
868.000000	 69.564219 
867.000000	 70.996208 
866.000000	 72.298666 
865.000000	 73.458428 
864.000000	 74.494114 
863.000000	 75.430982 
862.000000	 76.280752 
861.000000	 77.046958 
860.000000	 77.738724 
859.000000	 78.367845 
858.000000	 78.940495 
857.000000	 79.461900 
856.000000	 79.941668 
855.000000	 80.387014 
854.000000	 80.797338 
853.000000	 81.164397 
852.000000	 81.460993 
851.000000	 81.633801 
850.000000	 81.647974 
849.000000	 81.563540 
848.000000	 81.538133 
847.000000	 81.711991 
846.000000	 82.086869 
845.000000	 82.539699 
844.000000	 82.947441 
843.000000	 83.269671 
842.000000	 83.524951 
841.000000	 83.734521 
840.000000	 83.907562 
839.000000	 84.053903 
838.000000	 84.184114 
837.000000	 84.300665 
836.000000	 84.400236 
835.000000	 84.480883 
834.000000	 84.541526 
833.000000	 84.581033 
832.000000	 84.603869 
831.000000	 84.621267 
830.000000	 84.641654 
829.000000	 84.664743 
828.000000	 84.689094 
827.000000	 84.719232 
826.000000	 84.760584 
825.000000	 84.814222 
824.000000	 84.881249 
823.000000	 84.964079 
822.000000	 85.058016 
821.000000	 85.149613 
820.000000	 85.228091 
819.000000	 85.292224 
818.000000	 85.344300 
817.000000	 85.383874 
816.000000	 85.409609 
815.000000	 85.421691 
814.000000	 85.419543 
813.000000	 85.401470 
812.000000	 85.369053 
811.000000	 85.327554 
810.000000	 85.279148 
809.000000	 85.219607 
808.000000	 85.144224 
807.000000	 85.053105 
806.000000	 84.948630 
805.000000	 84.832809 
804.000000	 84.710731 
803.000000	 84.591945 
802.000000	 84.484348 
801.000000	 84.390078 
800.000000	 84.309532 
799.000000	 84.243882 
798.000000	 84.191468 
797.000000	 84.149339 
796.000000	 84.122272 
795.000000	 84.122422 
794.000000	 84.154324 
793.000000	 84.206158 
792.000000	 84.260509 
791.000000	 84.307670 
790.000000	 84.344641 
789.000000	 84.367790 
788.000000	 84.371994 
787.000000	 84.353361 
786.000000	 84.309138 
785.000000	 84.238803 
784.000000	 84.148506 
783.000000	 84.050937 
782.000000	 83.958008 
781.000000	 83.876342 
780.000000	 83.809411 
779.000000	 83.756430 
778.000000	 83.707218 
777.000000	 83.647552 
776.000000	 83.574682 
775.000000	 83.501015 
774.000000	 83.439028 
773.000000	 83.389579 
772.000000	 83.347846 
771.000000	 83.311152 
770.000000	 83.276312 
769.000000	 83.240249 
768.000000	 83.212282 
767.000000	 83.219400 
766.000000	 83.291301 
765.000000	 83.442752 
764.000000	 83.671332 
763.000000	 83.961482 
762.000000	 84.285561 
761.000000	 84.611431 
760.000000	 84.917518 
759.000000	 85.198216 
758.000000	 85.454619 
757.000000	 85.686846 
756.000000	 85.897003 
755.000000	 86.091788 
754.000000	 86.277192 
753.000000	 86.454256 
752.000000	 86.622247 
751.000000	 86.781296 
750.000000	 86.929905 
749.000000	 87.064327 
748.000000	 87.181061 
747.000000	 87.274082 
746.000000	 87.328288 
745.000000	 87.321147 
744.000000	 87.231159 
743.000000	 87.037550 
742.000000	 86.710638 
741.000000	 86.212313 
740.000000	 85.513374 
739.000000	 84.607141 
738.000000	 83.505634 
737.000000	 82.234763 
736.000000	 80.841689 
735.000000	 79.394531 
734.000000	 77.960151 
733.000000	 76.589179 
732.000000	 75.333756 
731.000000	 74.267058 
730.000000	 73.474368 
729.000000	 73.041045 
728.000000	 73.057514 
727.000000	 73.600796 
726.000000	 74.667118 
725.000000	 76.118017 
724.000000	 77.712854 
723.000000	 79.211343 
722.000000	 80.458031 
721.000000	 81.391744 
720.000000	 82.003476 
719.000000	 82.290212 
718.000000	 82.225925 
717.000000	 81.759786 
716.000000	 80.859414 
715.000000	 79.600425 
714.000000	 78.239101 
713.000000	 77.171057 
712.000000	 76.758034 
711.000000	 77.115891 
710.000000	 78.030185 
709.000000	 79.116612 
708.000000	 80.086605 
707.000000	 80.853658 
706.000000	 81.440743 
705.000000	 81.873144 
704.000000	 82.171911 
703.000000	 82.373716 
702.000000	 82.504501 
701.000000	 82.559860 
700.000000	 82.534521 
699.000000	 82.438286 
698.000000	 82.260599 
697.000000	 81.962417 
696.000000	 81.536772 
695.000000	 81.040043 
694.000000	 80.537631 
693.000000	 80.059280 
692.000000	 79.632535 
691.000000	 79.307016 
690.000000	 79.099074 
689.000000	 78.956454 
688.000000	 78.822543 
687.000000	 78.687205 
686.000000	 78.531790 
685.000000	 78.295584 
684.000000	 77.950630 
683.000000	 77.537327 
682.000000	 77.076342 
681.000000	 76.522188 
680.000000	 75.850633 
679.000000	 75.099375 
678.000000	 74.262906 
677.000000	 73.244893 
676.000000	 71.984432 
675.000000	 70.509534 
674.000000	 68.839747 
673.000000	 67.004065 
672.000000	 65.170490 
671.000000	 63.552957 
670.000000	 62.180937 
669.000000	 60.938713 
668.000000	 60.082303 
667.000000	 60.149658 
666.000000	 60.956311 
665.000000	 62.187343 
664.000000	 63.755749 
663.000000	 65.576251 
662.000000	 67.432442 
661.000000	 69.123696 
660.000000	 70.595286 
659.000000	 71.832234 
658.000000	 72.809714 
657.000000	 73.571082 
656.000000	 74.215913 
655.000000	 74.810938 
654.000000	 75.390220 
653.000000	 75.990943 
652.000000	 76.615563 
651.000000	 77.201804 
650.000000	 77.696983 
649.000000	 78.121523 
648.000000	 78.503674 
647.000000	 78.821482 
646.000000	 79.068254 
645.000000	 79.295424 
644.000000	 79.529656 
643.000000	 79.726054 
642.000000	 79.859159 
641.000000	 79.983600 
640.000000	 80.144027 
639.000000	 80.305390 
638.000000	 80.430037 
637.000000	 80.548151 
636.000000	 80.682896 
635.000000	 80.786661 
634.000000	 80.824407 
633.000000	 80.839651 
632.000000	 80.869248 
631.000000	 80.885053 
630.000000	 80.870712 
629.000000	 80.870461 
628.000000	 80.909728 
627.000000	 80.949087 
626.000000	 80.968020 
625.000000	 81.019488 
624.000000	 81.130832 
623.000000	 81.232963 
622.000000	 81.270372 
621.000000	 81.292717 
620.000000	 81.343049 
619.000000	 81.367334 
618.000000	 81.331648 
617.000000	 81.320004 
616.000000	 81.396406 
615.000000	 81.489980 
614.000000	 81.525634 
613.000000	 81.548431 
612.000000	 81.612391 
611.000000	 81.672139 
610.000000	 81.681890 
609.000000	 81.699460 
608.000000	 81.787596 
607.000000	 81.910530 
606.000000	 82.011658 
605.000000	 82.115803 
604.000000	 82.257286 
603.000000	 82.393905 
602.000000	 82.485878 
601.000000	 82.580132 
600.000000	 82.727885 
599.000000	 82.892386 
598.000000	 83.017688 
597.000000	 83.119832 
596.000000	 83.225192 
595.000000	 83.302693 
594.000000	 83.337293 
593.000000	 83.389247 
592.000000	 83.499670 
591.000000	 83.629928 
590.000000	 83.775638 
589.000000	 84.018998 
588.000000	 84.345725 
587.000000	 84.538346 
586.000000	 84.412834 
585.000000	 84.091595 
584.000000	 83.840016 
583.000000	 83.780899 
582.000000	 83.889196 
581.000000	 84.126012 
580.000000	 84.424001 
579.000000	 84.623764 
578.000000	 84.651363 
577.000000	 84.656336 
576.000000	 84.773308 
575.000000	 84.929565 
574.000000	 85.029429 
573.000000	 85.131715 
572.000000	 85.227730 
571.000000	 85.142300 
570.000000	 84.893659 
569.000000	 84.798316 
568.000000	 84.964817 
567.000000	 85.101262 
566.000000	 84.983102 
565.000000	 84.829220 
564.000000	 84.898850 
563.000000	 85.122999 
562.000000	 85.314199 
561.000000	 85.493239 
560.000000	 85.694548 
559.000000	 85.755230 
558.000000	 85.640250 
557.000000	 85.645125 
556.000000	 85.919465 
555.000000	 86.148256 
554.000000	 85.969497 
553.000000	 85.511842 
552.000000	 85.039160 
551.000000	 84.552425 
550.000000	 83.994777 

